
Time,Latitude,Longitude,AccelX(m/s^2),AccelY(m/s^2),AccelZ(m/s^2),Abs_Altitude(m),mode
1022,38.2612233,140.8485612,-0.45,1.95,10.57,0.00,0
1199,38.2612233,140.8485612,0.80,0.97,10.74,0.00,0
1324,38.2612233,140.8485612,2.05,0.91,8.96,0.00,0
1475,38.2612233,140.8485612,3.52,0.74,9.23,0.00,0
1626,38.2612233,140.8485612,1.80,0.70,10.07,0.00,0
1777,38.2612233,140.8485612,1.05,0.72,9.35,0.00,0
1928,38.2612233,140.8485612,0.63,0.99,9.31,0.00,0
2049,38.2612233,140.8485612,0.57,1.32,9.27,0.00,0
2225,38.2612233,140.8485612,1.09,1.49,10.49,0.00,0
2348,38.2612233,140.8485612,-0.21,1.82,9.82,0.00,0
2493,38.2612233,140.8485612,-0.49,1.62,9.82,0.00,0
2644,38.2612233,140.8485612,0.44,1.64,9.71,0.00,0
2795,38.2612233,140.8485612,0.95,1.80,9.50,0.00,0
2946,38.2612233,140.8485612,0.78,1.64,9.52,0.00,0
3067,38.2612233,140.8485612,0.90,1.59,9.42,0.00,0
3242,38.2612233,140.8485612,1.20,1.78,9.61,0.00,0
3363,38.2612233,140.8485612,1.45,1.70,9.44,0.00,0
3510,38.2612233,140.8485612,2.49,1.53,9.61,0.00,0
3661,38.2612233,140.8485612,2.98,2.52,8.87,0.00,0
3812,38.2612233,140.8485612,2.29,2.43,8.85,0.00,0
3963,38.2612233,140.8485612,5.34,1.43,8.89,0.00,0
4084,38.2612233,140.8485612,6.34,0.90,6.61,0.00,0
4260,38.2612233,140.8485612,7.28,-1.78,5.03,0.00,0
4381,38.2612233,140.8485612,8.64,0.30,6.89,0.00,0
4528,38.2612233,140.8485612,7.74,-0.90,5.26,0.00,0
4679,38.2612233,140.8485612,6.15,-1.91,7.26,0.00,0
4830,38.2612233,140.8485612,6.62,-0.55,9.15,0.00,0
4981,38.2612233,140.8485612,5.09,0.42,7.98,0.00,0
5102,38.2612233,140.8485612,4.61,0.70,7.95,0.00,0
5279,38.2612233,140.8485612,5.13,4.34,6.45,0.00,0
5400,38.2612233,140.8485612,4.21,3.94,5.28,0.00,0
5545,38.2612233,140.8485612,3.64,8.08,0.99,0.00,0
5696,38.2612233,140.8485612,2.39,12.26,-0.82,0.00,0
5847,38.2612233,140.8485612,1.57,10.61,1.60,0.00,0
5998,38.2612233,140.8485612,-0.24,9.35,0.76,0.00,0
6119,38.2612233,140.8485612,0.42,9.44,1.28,0.00,0
6295,38.2612233,140.8485612,-0.44,9.06,0.67,0.00,0
6416,38.2612233,140.8485612,0.09,9.33,0.63,0.00,0
6563,38.2612233,140.8485612,0.05,9.23,0.72,0.00,0
6714,38.2612233,140.8485612,0.03,9.25,0.68,0.00,0
6865,38.2612233,140.8485612,0.03,9.25,0.68,0.00,0
6986,38.2612233,140.8485612,0.05,9.25,0.72,0.00,0
7128,38.2612233,140.8485612,0.03,9.23,0.68,0.00,0
7304,38.2612233,140.8485612,0.05,9.25,0.68,0.00,0
7430,38.2612233,140.8485612,0.05,9.25,0.68,0.00,0
7581,38.2612233,140.8485612,0.05,9.25,0.68,0.00,0
7732,38.2612233,140.8485612,0.05,9.25,0.70,0.00,0
7883,38.2612233,140.8485612,0.05,9.27,0.70,0.00,0
8004,38.2612233,140.8485612,0.03,9.23,0.68,0.00,0
8146,38.2612233,140.8485612,0.03,9.25,0.70,0.00,0
8321,38.2612233,140.8485612,0.03,9.27,0.72,0.00,0
8448,38.2612233,140.8485612,0.05,9.27,0.70,0.00,0
8599,38.2612233,140.8485612,0.03,9.25,0.68,0.00,0
8750,38.2612233,140.8485612,0.07,9.23,0.70,0.00,0
8901,38.2612233,140.8485612,0.07,9.25,0.70,0.00,0
9022,38.2612233,140.8485612,0.03,9.27,0.68,0.00,0
9163,38.2612233,140.8485612,0.03,9.29,0.70,0.00,0
9339,38.2612233,140.8485612,0.03,9.27,0.67,0.00,0
9465,38.2612233,140.8485612,0.03,9.27,0.70,0.00,0
9616,38.2612233,140.8485612,0.05,9.23,0.72,0.00,0
9767,38.2612233,140.8485612,0.07,9.27,0.68,0.00,0
9918,38.2612233,140.8485612,0.03,9.25,0.68,0.00,0
10039,38.2612233,140.8485612,0.01,9.29,0.68,0.00,0
10181,38.2612233,140.8485612,0.05,9.29,0.68,0.00,0
10357,38.2612233,140.8485612,0.05,9.23,0.67,0.00,0
10483,38.2612233,140.8485612,0.03,9.25,0.70,0.00,0
10634,38.2612233,140.8485612,0.03,9.25,0.70,0.00,0
10785,38.2612233,140.8485612,0.05,9.27,0.70,0.00,0
10936,38.2612233,140.8485612,0.05,9.25,0.72,0.00,0
11059,38.2612233,140.8485612,0.05,9.27,0.70,0.00,0
11199,38.2612233,140.8485612,0.03,9.25,0.70,0.00,0
11375,38.2612233,140.8485612,0.05,9.27,0.72,0.00,0
11501,38.2612233,140.8485612,0.05,9.25,0.72,0.00,0
11652,38.2612233,140.8485612,0.05,9.25,0.68,0.00,0
11803,38.2612233,140.8485612,0.07,9.29,0.74,0.00,0
11954,38.2612233,140.8485612,0.05,9.25,0.68,0.00,0
12075,38.2612233,140.8485612,0.03,9.27,0.72,0.00,0
12217,38.2612233,140.8485612,0.03,9.27,0.70,0.00,0
12395,38.2612233,140.8485612,0.01,9.29,0.68,0.00,0
12519,38.2612233,140.8485612,0.03,9.27,0.70,0.00,0
12670,38.2612233,140.8485612,0.03,9.25,0.72,0.00,0
12821,38.2612233,140.8485612,0.05,9.27,0.70,0.00,0
12972,38.2612233,140.8485612,0.03,9.25,0.70,0.00,0
13093,38.2612233,140.8485612,0.03,9.31,0.72,0.00,0
13235,38.2612233,140.8485612,0.03,9.27,0.70,0.00,0
13411,38.2612233,140.8485612,0.07,9.23,0.70,0.00,0
13537,38.2612233,140.8485612,0.03,9.25,0.72,0.00,0
13688,38.2612233,140.8485612,0.03,9.27,0.68,0.00,0
13839,38.2612233,140.8485612,0.05,9.27,0.72,0.00,0
13990,38.2612233,140.8485612,0.03,9.27,0.74,0.00,0
14111,38.2612233,140.8485612,0.07,9.25,0.68,0.00,0
14253,38.2612233,140.8485612,0.03,9.27,0.70,0.00,0
14429,38.2612233,140.8485612,0.03,9.25,0.70,0.00,0
14555,38.2612233,140.8485612,0.05,9.27,0.68,0.00,0
14706,38.2612233,140.8485612,0.05,9.29,0.68,0.00,0
14857,38.2612233,140.8485612,0.03,9.27,0.70,0.00,0
15008,38.2612233,140.8485612,0.03,9.23,0.72,0.00,0
15129,38.2612233,140.8485612,0.03,9.23,0.68,0.00,0
15271,38.2612233,140.8485612,0.03,9.25,0.74,0.00,0
15447,38.2612233,140.8485612,0.03,9.27,0.72,0.00,0
15573,38.2612233,140.8485612,0.05,9.25,0.72,0.00,0
15724,38.2612233,140.8485612,0.03,9.25,0.70,0.00,0
15875,38.2612233,140.8485612,0.03,9.27,0.72,0.00,0
15996,38.2612233,140.8485612,0.03,9.27,0.72,0.00,0
16138,38.2612233,140.8485612,0.03,9.27,0.70,0.00,0
16289,38.2612233,140.8485612,0.01,9.27,0.72,0.00,0
16465,38.2612233,140.8485612,0.05,9.25,0.70,0.00,0
16591,38.2612233,140.8485612,0.03,9.27,0.68,0.00,0
16742,38.2612233,140.8485612,0.09,9.27,0.70,0.00,0
16893,38.2612233,140.8485612,0.03,9.25,0.70,0.00,0
17014,38.2612233,140.8485612,0.03,9.25,0.72,0.00,0
17156,38.2612233,140.8485612,0.05,9.27,0.72,0.00,0
17307,38.2612233,140.8485612,0.05,9.25,0.68,0.00,0
17483,38.2612233,140.8485612,0.03,9.25,0.76,0.00,0
17609,38.2612233,140.8485612,0.03,9.27,0.70,0.00,0
17760,38.2612233,140.8485612,0.05,9.29,0.70,0.00,0
17911,38.2612233,140.8485612,0.03,9.27,0.68,0.00,0
18032,38.2612233,140.8485612,0.05,9.27,0.70,0.00,0
18174,38.2612233,140.8485612,0.03,9.23,0.70,0.00,0
18325,38.2612233,140.8485612,0.05,9.25,0.70,0.00,0
18501,38.2612233,140.8485612,0.03,9.25,0.68,0.00,0
18627,38.2612233,140.8485612,0.05,9.25,0.74,0.00,0
18778,38.2612233,140.8485612,0.05,9.27,0.70,0.00,0
18929,38.2612233,140.8485612,0.03,9.23,0.68,0.00,0
19050,38.2612233,140.8485612,0.03,9.25,0.70,0.00,0
19192,38.2612233,140.8485612,0.05,9.25,0.68,0.00,0
19343,38.2612233,140.8485612,0.05,9.25,0.68,0.00,0
19519,38.2612233,140.8485612,0.05,9.25,0.72,0.00,0
19645,38.2612233,140.8485612,0.03,9.27,0.68,0.00,0
19796,38.2612233,140.8485612,0.07,9.27,0.74,0.00,0
19947,38.2612233,140.8485612,0.07,9.25,0.68,0.00,0
20068,38.2612233,140.8485612,0.03,9.27,0.74,0.00,0
20210,38.2612233,140.8485612,0.05,9.27,0.74,0.00,0
20361,38.2612233,140.8485612,0.05,9.27,0.70,0.00,0
20537,38.2612233,140.8485612,0.03,9.25,0.68,0.00,0
20663,38.2612233,140.8485612,0.03,9.25,0.68,0.00,0
20814,38.2612233,140.8485612,0.05,9.23,0.72,0.00,0
20965,38.2612233,140.8485612,0.03,9.27,0.70,0.00,0
21085,38.2612233,140.8485612,0.05,9.23,0.72,0.00,0
21228,38.2612233,140.8485612,0.05,9.25,0.67,0.00,0
21379,38.2612233,140.8485612,0.95,8.98,1.24,0.00,0
21555,38.2612233,140.8485612,-0.13,9.90,0.26,0.00,0
21681,38.2612233,140.8485612,-0.17,8.98,0.63,0.00,0
21832,38.2612233,140.8485612,0.67,10.11,-0.24,0.00,0
21983,38.2612233,140.8485612,-0.26,9.38,0.61,0.00,0
22104,38.2612233,140.8485612,0.07,9.21,0.80,0.00,0
22246,38.2612233,140.8485612,-4.34,14.19,1.82,0.00,0
22397,38.2612233,140.8485612,0.07,6.61,-0.68,0.00,0
22575,38.2612233,140.8485612,0.91,8.08,-3.48,0.00,0
22699,38.2612233,140.8485612,1.36,9.61,-1.49,0.00,0
22850,38.2612233,140.8485612,1.45,12.10,-1.22,0.00,0
23001,38.2612233,140.8485612,0.95,6.57,-3.50,0.00,0
23122,38.2612233,140.8485612,-0.72,8.18,-2.98,0.00,0
23264,38.2612233,140.8485612,0.01,5.11,-8.06,0.00,0
23415,38.2612233,140.8485612,-2.20,1.89,-6.49,0.00,0
23593,38.2612233,140.8485612,-2.37,2.50,-8.43,0.00,0
23717,38.2612233,140.8485612,-1.95,3.27,-9.36,0.00,0
23868,38.2612233,140.8485612,-2.03,3.41,-9.04,0.00,0
23989,38.2612233,140.8485612,-2.29,3.04,-8.12,0.00,0
24130,38.2612233,140.8485612,-2.16,4.15,-9.84,0.00,0
24281,38.2612233,140.8485612,-3.50,5.38,-7.16,0.00,0
24432,38.2612233,140.8485612,-5.34,5.61,-5.99,0.00,0
24610,38.2612233,140.8485612,-7.68,7.68,-3.25,0.00,0
24734,38.2612233,140.8485612,-6.01,4.52,-4.02,0.00,0
24885,38.2612233,140.8485612,-5.30,6.01,-5.44,0.00,0
25012,38.2612233,140.8485612,-5.97,6.49,-4.08,0.00,0
25148,38.2612233,140.8485612,-7.14,5.59,-2.03,0.00,0
25299,38.2612233,140.8485612,-8.21,5.00,-1.74,0.00,0
25450,38.2612233,140.8485612,-8.18,4.90,-1.32,0.00,0
25628,38.2612233,140.8485612,-8.23,4.98,-0.93,0.00,0
25752,38.2612233,140.8485612,-9.58,6.80,-1.70,0.00,0
25903,38.2612233,140.8485612,-7.54,4.63,-1.51,0.00,0
26024,38.2612233,140.8485612,-6.47,6.22,-1.83,0.00,0
26166,38.2612233,140.8485612,-5.97,6.34,-2.85,0.00,0
26317,38.2612233,140.8485612,-6.78,7.60,-2.45,0.00,0
26468,38.2612233,140.8485612,-8.06,5.28,-7.85,0.00,0
26648,38.2612233,140.8485612,-3.19,6.49,-4.90,0.00,0
26770,38.2612233,140.8485612,-2.81,6.47,-5.19,0.00,0
26921,38.2612233,140.8485612,-3.56,7.60,-6.72,0.00,0
27042,38.2612233,140.8485612,-2.29,7.98,-5.36,0.00,0
27184,38.2612233,140.8485612,-0.34,7.51,-7.51,0.00,0
27335,38.2612233,140.8485612,-0.32,7.72,-6.34,0.00,0
27486,38.2612233,140.8485612,-0.99,7.85,-4.71,0.00,0
27664,38.2612233,140.8485612,-0.97,7.66,-5.76,0.00,0
27788,38.2612233,140.8485612,-2.06,6.80,-9.38,0.00,0
27939,38.2612233,140.8485612,1.05,5.95,-7.14,0.00,0
28060,38.2612233,140.8485612,-3.48,4.77,-4.96,0.00,0
28202,38.2612233,140.8485612,-4.17,7.64,-6.03,0.00,0
28353,38.2612233,140.8485612,-5.24,9.13,-4.71,0.00,0
28504,38.2612233,140.8485612,-5.21,7.93,-3.19,0.00,0
28683,38.2612233,140.8485612,-3.94,6.49,-1.70,0.00,0
28806,38.2612233,140.8485612,-5.05,7.24,-3.25,0.00,0
28957,38.2612233,140.8485612,-1.99,3.25,-1.80,0.00,0
29078,38.2612233,140.8485612,-2.77,8.39,-7.03,0.00,0
29220,38.2612233,140.8485612,-2.37,6.68,-4.52,0.00,0
29371,38.2612233,140.8485612,-2.26,9.84,-7.52,0.00,0
29522,38.2612233,140.8485612,-2.37,7.62,-3.10,0.00,0
29700,38.2612233,140.8485612,-3.60,5.00,-5.46,0.00,0
29824,38.2612233,140.8485612,0.55,8.56,-5.19,0.00,0
29975,38.2612233,140.8485612,-0.30,7.87,-4.25,0.00,0
30096,38.2612233,140.8485612,2.37,9.19,-5.21,0.00,0
30239,38.2612233,140.8485612,1.09,8.71,-3.85,0.00,0
30390,38.2612233,140.8485612,1.47,9.19,-2.83,0.00,0
30541,38.2612233,140.8485612,1.41,9.29,-2.16,0.00,0
30720,38.2612233,140.8485612,-0.36,9.00,-2.93,0.00,0
30843,38.2612233,140.8485612,-0.07,8.41,-2.47,0.00,0
30994,38.2612233,140.8485612,0.19,9.67,-2.01,0.00,0
31115,38.2612233,140.8485612,-0.90,10.19,-3.19,0.00,0
31256,38.2612233,140.8485612,-0.90,9.23,-3.18,0.00,0
31407,38.2612233,140.8485612,-0.76,9.02,-2.35,0.00,0
31558,38.2612233,140.8485612,-2.56,7.70,-1.11,0.00,0
31736,38.2612233,140.8485612,-1.82,8.54,-1.95,0.00,0
31860,38.2612233,140.8485612,-2.20,8.64,-1.28,0.00,0
32011,38.2612233,140.8485612,-2.56,8.90,-1.47,0.00,0
32134,38.2612233,140.8485612,-2.41,8.89,-0.84,0.00,0
32274,38.2612233,140.8485612,-3.08,8.35,-1.49,0.00,0
32425,38.2612233,140.8485612,-3.02,7.93,-1.91,0.00,0
32576,38.2612233,140.8485612,-3.18,8.44,-1.05,0.00,0
32755,38.2612233,140.8485612,-2.05,9.73,-0.97,0.00,0
32878,38.2612233,140.8485612,-1.85,8.52,-1.37,0.00,0
32999,38.2612233,140.8485612,-1.34,9.48,-1.22,0.00,0
33142,38.2612233,140.8485612,-0.67,9.35,-0.45,0.00,0
33293,38.2612233,140.8485612,0.80,8.00,0.05,0.00,0
33444,38.2612233,140.8485612,1.93,9.27,-1.37,0.00,0
33595,38.2612233,140.8485612,0.90,9.27,-1.72,0.00,0
33772,38.2612233,140.8485612,1.74,9.73,-1.74,0.00,0
33897,38.2612233,140.8485612,0.74,9.81,-5.28,0.00,0
34018,38.2612233,140.8485612,2.10,9.00,-6.28,0.00,0
34161,38.2612233,140.8485612,2.31,8.06,-7.60,0.00,0
34312,38.2612233,140.8485612,1.57,4.59,-6.70,0.00,0
34463,38.2612233,140.8485612,-1.68,1.09,-7.56,0.00,0
34614,38.2612233,140.8485612,-0.21,1.51,-9.52,0.00,0
34793,38.2612233,140.8485612,-1.28,1.32,-9.31,0.00,0
34916,38.2612233,140.8485612,-1.13,0.86,-9.33,0.00,0
35037,38.2612233,140.8485612,-2.20,0.93,-8.85,0.00,0
35179,38.2612233,140.8485612,-1.49,0.99,-9.79,0.00,0
35330,38.2612233,140.8485612,-2.54,1.01,-8.64,0.00,0
35481,38.2612233,140.8485612,-2.06,0.63,-9.38,0.00,0
35632,38.2612233,140.8485612,-2.39,1.91,-12.14,0.00,0
35812,38.2612233,140.8485612,-1.99,1.03,-9.10,0.00,0
35934,38.2612233,140.8485612,-3.12,2.01,-12.93,0.00,0
36055,38.2612233,140.8485612,-2.10,1.59,-9.33,0.00,0
36197,38.2612233,140.8485612,-2.58,1.43,-8.94,0.00,0
36348,38.2612233,140.8485612,-2.75,1.66,-8.66,0.00,0
36499,38.2612233,140.8485612,-2.28,1.26,-9.13,0.00,0
36650,38.2612233,140.8485612,-2.64,1.85,-9.92,0.00,0
36828,38.2612233,140.8485612,-1.62,1.09,-8.62,0.00,0
36952,38.2612233,140.8485612,-0.05,1.26,-10.61,0.00,0
37073,38.2612233,140.8485612,-3.90,4.40,-5.57,0.00,0
37215,38.2612233,140.8485612,-0.80,3.60,-6.51,0.00,0
37366,38.2612233,140.8485612,-0.36,4.38,-8.50,0.00,0
37517,38.2612233,140.8485612,1.41,3.75,-9.13,0.00,0
37668,38.2612233,140.8485612,0.26,1.57,-9.92,0.00,0
37845,38.2612233,140.8485612,0.78,1.45,-8.77,0.00,0
37970,38.2612233,140.8485612,1.07,-3.27,-12.72,0.00,0
38091,38.2612233,140.8485612,0.00,0.24,-9.63,0.00,0
38233,38.2612233,140.8485612,0.21,1.14,-8.54,0.00,0
38384,38.2612233,140.8485612,0.59,0.61,-8.98,0.00,0
38535,38.2612233,140.8485612,0.76,0.19,-10.97,0.00,0
38686,38.2612233,140.8485612,1.03,0.84,-9.77,0.00,0
38863,38.2612233,140.8485612,0.21,0.15,-10.02,0.00,0
38988,38.2612233,140.8485612,0.88,0.51,-9.31,0.00,0
39109,38.2612233,140.8485612,0.44,0.07,-9.38,0.00,0
39251,38.2612233,140.8485612,-0.11,0.07,-10.13,0.00,0
39402,38.2612233,140.8485612,1.03,0.09,-10.78,0.00,0
39553,38.2612233,140.8485612,-0.21,0.67,-8.31,0.00,0
39704,38.2612233,140.8485612,0.74,0.21,-10.03,0.00,0
39882,38.2612233,140.8485612,2.05,2.45,-6.89,0.00,0
40006,38.2612233,140.8485612,5.61,1.97,-7.93,0.00,0
40127,38.2612233,140.8485612,7.01,3.41,-6.82,0.00,0
40269,38.2612233,140.8485612,8.77,4.57,-3.12,0.00,0
40420,38.2612233,140.8485612,8.00,5.07,-3.27,0.00,0
40571,38.2612233,140.8485612,7.70,4.31,-2.96,0.00,0
40722,38.2612233,140.8485612,6.34,3.58,-4.02,0.00,0
40899,38.2612233,140.8485612,8.48,5.11,-0.67,0.00,0
41020,38.2612233,140.8485612,8.56,6.72,0.09,0.00,0
41142,38.2612233,140.8485612,8.48,6.24,-0.68,0.00,0
41287,38.2612233,140.8485612,9.50,4.92,-2.39,0.00,0
41438,38.2612233,140.8485612,8.58,2.70,-2.14,0.00,0
41589,38.2612233,140.8485612,9.17,5.65,-0.32,0.00,0
41740,38.2612233,140.8485612,7.07,5.63,1.01,0.00,0
41918,38.2612233,140.8485612,8.18,5.95,1.07,0.00,0
42039,38.2612233,140.8485612,7.83,5.40,1.59,0.00,0
42160,38.2612233,140.8485612,7.95,3.65,2.22,0.00,0
42305,38.2612233,140.8485612,9.54,0.86,1.51,0.00,0
42456,38.2612233,140.8485612,10.34,-2.89,-2.68,0.00,0
42607,38.2612233,140.8485612,7.52,-4.98,-5.05,0.00,0
42758,38.2612233,140.8485612,5.49,-7.07,-7.79,0.00,0
42936,38.2612233,140.8485612,7.77,-3.41,-3.96,0.00,0
43057,38.2612233,140.8485612,9.17,-3.29,-3.83,0.00,0
43180,38.2612233,140.8485612,9.73,-1.55,-2.28,0.00,0
43323,38.2612233,140.8485612,9.69,0.34,-0.09,0.00,0
43474,38.2612233,140.8485612,9.31,-0.70,0.07,0.00,0
43625,38.2612233,140.8485612,9.13,5.09,3.58,0.00,0
43776,38.2612233,140.8485612,6.43,4.90,2.54,0.00,0
43952,38.2612233,140.8485612,7.41,6.15,3.44,0.00,0
44073,38.2612233,140.8485612,5.69,9.33,2.95,0.00,0
44194,38.2612233,140.8485612,5.90,4.31,3.14,0.00,0
44341,38.2612233,140.8485612,5.03,7.01,2.70,0.00,0
44492,38.2612233,140.8485612,3.25,7.62,5.03,0.00,0
44643,38.2612233,140.8485612,3.79,7.47,3.52,0.00,0
44794,38.2612233,140.8485612,3.92,7.74,2.83,0.00,0
44970,38.2612233,140.8485612,3.19,8.04,2.83,0.00,0
45091,38.2612233,140.8485612,4.11,8.58,3.50,0.00,0
45212,38.2612233,140.8485612,5.65,8.18,4.15,0.00,0
45359,38.2612233,140.8485612,2.03,7.62,1.18,0.00,0
45510,38.2612233,140.8485612,1.95,7.81,3.21,0.00,0
45661,38.2612233,140.8485612,3.56,8.75,5.80,0.00,0
45812,38.2612233,140.8485612,2.01,9.19,6.70,0.00,0
45988,38.2612233,140.8485612,-0.07,9.27,6.45,0.00,0
46111,38.2612233,140.8485612,1.91,6.91,5.51,0.00,0
46232,38.2612233,140.8485612,-0.26,4.98,3.85,0.00,0
46377,38.2612233,140.8485612,2.45,6.93,5.69,0.00,0
46528,38.2612233,140.8485612,0.59,7.24,4.42,0.00,0
46679,38.2612233,140.8485612,2.20,9.61,5.21,0.00,0
46830,38.2612233,140.8485612,2.43,7.47,4.56,0.00,0
47006,38.2612233,140.8485612,1.57,9.88,-0.36,0.00,0
47127,38.2612233,140.8485612,1.89,8.16,2.72,0.00,0
47248,38.2612233,140.8485612,1.09,7.58,2.72,0.00,0
47395,38.2612233,140.8485612,1.24,9.33,1.82,0.00,0
47546,38.2612233,140.8485612,0.34,9.42,3.56,0.00,0
47697,38.2612233,140.8485612,0.19,9.56,2.18,0.00,0
47848,38.2612233,140.8485612,0.11,9.50,1.93,0.00,0
48024,38.2612233,140.8485612,2.22,8.31,3.44,0.00,0
48145,38.2612233,140.8485612,-0.11,10.48,5.51,0.00,0
48266,38.2612233,140.8485612,-2.60,10.65,5.61,0.00,0
48414,38.2612233,140.8485612,-3.67,8.43,2.26,0.00,0
48565,38.2612233,140.8485612,-1.28,7.26,3.50,0.00,0
48716,38.2612233,140.8485612,1.62,7.30,3.85,0.00,0
48867,38.2612233,140.8485612,0.32,7.64,2.06,0.00,0
49043,38.2612233,140.8485612,1.78,8.83,3.75,0.00,0
49164,38.2612233,140.8485612,1.49,9.08,3.58,0.00,0
49285,38.2612233,140.8485612,0.13,8.39,2.77,0.00,0
49432,38.2612233,140.8485612,1.70,8.41,3.87,0.00,0
49583,38.2612233,140.8485612,0.99,8.92,2.75,0.00,0
49734,38.2612233,140.8485612,0.76,8.64,2.98,0.00,0
49885,38.2612233,140.8485612,-0.42,9.04,3.35,0.00,0
50062,38.2612233,140.8485612,-0.34,8.44,3.00,0.00,0
50183,38.2612233,140.8485612,-0.99,9.19,4.13,0.00,0
50306,38.2612233,140.8485612,-2.89,11.11,4.77,0.00,0
50450,38.2612233,140.8485612,-2.45,4.54,8.79,0.00,0
50601,38.2612233,140.8485612,-0.88,-0.03,9.56,0.00,0
50752,38.2612233,140.8485612,-5.53,3.96,11.38,0.00,0
50903,38.2612233,140.8485612,-1.74,-0.30,7.20,0.00,0
51081,38.2612233,140.8485612,-2.81,-0.42,9.63,0.00,0
51202,38.2612233,140.8485612,-1.83,-0.95,9.88,0.00,0
51323,38.2612233,140.8485612,-2.18,-0.34,10.59,0.00,0
51468,38.2612233,140.8485612,-2.58,-0.82,9.52,0.00,0
51619,38.2612233,140.8485612,-3.31,-0.74,9.13,0.00,0
51770,38.2612233,140.8485612,-1.80,0.32,9.59,0.00,0
51921,38.2612233,140.8485612,-2.08,-0.47,10.03,0.00,0
52101,38.2612233,140.8485612,-1.49,0.05,9.31,0.00,0
52222,38.2612233,140.8485612,-1.87,-0.59,9.77,0.00,0
52343,38.2612233,140.8485612,-2.12,0.34,10.69,0.00,0
52486,38.2612233,140.8485612,-0.70,-0.03,10.25,0.00,0
52637,38.2612233,140.8485612,-1.74,0.68,10.28,0.00,0
52788,38.2612233,140.8485612,-0.26,0.38,9.48,0.00,0
52939,38.2612233,140.8485612,-1.43,0.05,9.63,0.00,0
53118,38.2612233,140.8485612,-1.64,0.49,10.02,0.00,0
53239,38.2612233,140.8485612,-2.18,-0.55,9.54,0.00,0
53360,38.2612233,140.8485612,-1.22,-0.61,9.36,0.00,0
53504,38.2612233,140.8485612,-1.28,0.17,9.79,0.00,0
53655,38.2612233,140.8485612,-2.16,-0.28,9.92,0.00,0
53806,38.2612233,140.8485612,-3.23,0.30,10.36,0.00,0
53957,38.2612233,140.8485612,-1.62,0.09,10.09,0.00,0
54135,38.2612233,140.8485612,-1.93,0.97,10.92,0.00,0
54256,38.2612233,140.8485612,-1.41,0.15,9.36,0.00,0
54377,38.2612233,140.8485612,-1.83,-0.36,9.48,0.00,0
54522,38.2612233,140.8485612,-2.58,0.17,9.92,0.00,0
54673,38.2612233,140.8485612,-2.47,0.30,9.48,0.00,0
54824,38.2612233,140.8485612,-2.60,0.68,10.02,0.00,0
54975,38.2612233,140.8485612,-3.56,0.76,9.69,0.00,0
55152,38.2612233,140.8485612,-2.12,0.38,7.10,0.00,0
55273,38.2612233,140.8485612,-2.33,0.57,9.13,0.00,0
55394,38.2612233,140.8485612,-1.30,0.57,7.43,0.00,0
55541,38.2612233,140.8485612,0.00,1.43,9.25,0.00,0
55692,38.2612233,140.8485612,-0.49,3.56,9.35,0.00,0
55843,38.2612233,140.8485612,-0.65,3.35,9.35,0.00,0
55994,38.2612233,140.8485612,-3.56,4.69,8.35,0.00,0
56171,38.2612233,140.8485612,-1.85,1.66,8.46,0.00,0
56292,38.2612233,140.8485612,-2.77,0.70,10.17,0.00,0
56413,38.2612233,140.8485612,-1.82,-0.76,9.13,0.00,0
56560,38.2612233,140.8485612,-1.14,-1.76,10.21,0.00,0
56711,38.2612233,140.8485612,-4.08,0.28,11.28,0.00,0
56862,38.2612233,140.8485612,-0.28,-0.78,10.51,0.00,0
57013,38.2612233,140.8485612,-2.62,0.15,9.44,0.00,0
57191,38.2612233,140.8485612,-1.93,0.57,9.15,0.00,0
57314,38.2612233,140.8485612,-1.24,-0.53,9.61,0.00,0
57435,38.2612233,140.8485612,-2.01,-0.86,11.45,0.00,0
57578,38.2612233,140.8485612,2.50,-1.30,9.88,0.00,0
57729,38.2612233,140.8485612,-2.95,-0.57,10.49,0.00,0
57880,38.2612233,140.8485612,-1.89,-1.43,10.02,0.00,0
58001,38.2612233,140.8485612,-2.50,-1.41,10.09,0.00,0
58144,38.2612233,140.8485612,-3.87,-0.80,9.71,0.00,0
58322,38.2612233,140.8485612,-2.62,1.34,6.39,0.00,0
58446,38.2612233,140.8485612,-1.22,-1.60,10.40,0.00,0
58597,38.2612233,140.8485612,-2.43,-1.87,10.57,0.00,0
58748,38.2612233,140.8485612,-0.90,-2.28,10.23,0.00,0
58899,38.2612233,140.8485612,-1.83,-1.20,8.92,0.00,0
59020,38.2612233,140.8485612,-2.06,0.07,11.20,0.00,0
59163,38.2612233,140.8485612,-1.99,-0.53,9.42,0.00,0
59341,38.2612233,140.8485612,-2.75,0.51,10.02,0.00,0
59465,38.2612233,140.8485612,-2.91,0.28,9.48,0.00,0
59616,38.2612233,140.8485612,-2.12,-0.11,10.05,0.00,0
59767,38.2612233,140.8485612,-1.83,0.51,9.31,0.00,0
59918,38.2612233,140.8485612,-2.22,0.53,10.38,0.00,0
60041,38.2612233,140.8485612,-1.85,0.70,8.83,0.00,0
60182,38.2612233,140.8485612,-3.12,1.03,9.75,0.00,0
60360,38.2612233,140.8485612,-2.87,0.93,9.75,0.00,0
60484,38.2612233,140.8485612,-3.08,0.30,10.36,0.00,0
60635,38.2612233,140.8485612,-2.01,0.80,9.67,0.00,0
60786,38.2612233,140.8485612,-2.50,1.22,9.44,0.00,0
60937,38.2612233,140.8485612,-4.90,1.11,10.63,0.00,0
61058,38.2612233,140.8485612,-2.18,-2.85,9.94,0.00,0
61200,38.2612233,140.8485612,-1.37,-5.11,8.64,0.00,0
61380,38.2612233,140.8485612,3.33,-7.64,0.65,0.00,0
61502,38.2612233,140.8485612,3.39,-4.36,6.68,0.00,0
61653,38.2612233,140.8485612,7.66,-5.36,8.94,0.00,0
61804,38.2612233,140.8485612,4.52,-1.62,8.18,0.00,0
61955,38.2612233,140.8485612,4.80,-0.82,7.05,0.00,0
62076,38.2612233,140.8485612,1.83,1.64,6.34,0.00,0
62219,38.2612233,140.8485612,0.97,0.21,9.73,0.00,0
62395,38.2612233,140.8485612,3.16,-1.07,11.87,0.00,0
62521,38.2612233,140.8485612,-0.72,1.34,10.34,0.00,0
62672,38.2612233,140.8485612,-0.61,0.88,10.80,0.00,0
62823,38.2612233,140.8485612,-0.76,2.05,9.81,0.00,0
62974,38.2612233,140.8485612,-1.89,2.18,10.15,0.00,0
63095,38.2612233,140.8485612,-1.60,2.28,9.10,0.00,0
63238,38.2612233,140.8485612,-1.80,2.16,9.36,0.00,0
63415,38.2612233,140.8485612,-0.91,2.45,10.09,0.00,0
63540,38.2612233,140.8485612,-0.38,0.95,8.71,0.00,0
63691,38.2612233,140.8485612,0.70,1.14,9.79,0.00,0
63842,38.2612233,140.8485612,2.39,0.93,11.18,0.00,0
63993,38.2612233,140.8485612,4.06,0.05,9.36,0.00,0
64114,38.2612233,140.8485612,4.40,-0.63,8.62,0.00,0
64256,38.2612233,140.8485612,6.43,-1.68,7.01,0.00,0
64434,38.2612233,140.8485612,7.26,-2.22,7.39,0.00,0
64558,38.2612233,140.8485612,7.24,-2.56,6.20,0.00,0
64709,38.2612233,140.8485612,7.97,-2.91,6.26,0.00,0
64860,38.2612233,140.8485612,6.93,-2.26,1.05,0.00,0
65011,38.2612233,140.8485612,6.49,-0.65,1.97,0.00,0
65132,38.2612233,140.8485612,8.02,-1.83,7.10,0.00,0
65274,38.2612233,140.8485612,5.65,-0.45,8.14,0.00,0
65451,38.2612233,140.8485612,6.24,1.28,6.36,0.00,0
65576,38.2612233,140.8485612,4.19,1.49,7.83,0.00,0
65727,38.2612233,140.8485612,2.26,3.85,7.97,0.00,0
65878,38.2612233,140.8485612,0.95,5.11,8.35,0.00,0
65999,38.2612233,140.8485612,1.83,6.32,9.36,0.00,0
66141,38.2612233,140.8485612,0.65,6.95,8.12,0.00,0
66292,38.2612233,140.8485612,-0.17,7.30,6.30,0.00,0
66470,38.2612233,140.8485612,-0.03,7.24,5.19,0.00,0
66594,38.2612233,140.8485612,0.45,8.20,5.38,0.00,0
66745,38.2612233,140.8485612,2.79,8.64,5.99,0.00,0
66896,38.2612233,140.8485612,3.41,7.24,2.20,0.00,0
67019,38.2612233,140.8485612,3.52,9.96,2.14,0.00,0
67160,38.2612233,140.8485612,2.05,7.72,1.53,0.00,0
67311,38.2612233,140.8485612,2.22,8.92,0.24,0.00,0
67487,38.2612233,140.8485612,3.88,8.87,-0.40,0.00,0
67613,38.2612233,140.8485612,3.16,7.97,0.28,0.00,0
67764,38.2612233,140.8485612,4.08,7.79,-0.65,0.00,0
67915,38.2612233,140.8485612,4.00,8.83,-0.97,0.00,0
68036,38.2612233,140.8485612,3.77,8.04,-1.14,0.00,0
68179,38.2612233,140.8485612,3.67,8.66,-0.42,0.00,0
68330,38.2612233,140.8485612,3.12,8.73,-0.95,0.00,0
68509,38.2612233,140.8485612,4.52,8.33,-1.47,0.00,0
68632,38.2612233,140.8485612,3.35,9.10,-1.39,0.00,0
68783,38.2612233,140.8485612,3.71,9.04,-1.37,0.00,0
68934,38.2612233,140.8485612,4.17,8.54,-1.03,0.00,0
69055,38.2612233,140.8485612,4.21,7.56,-0.90,0.00,0
69198,38.2612233,140.8485612,5.42,7.97,-0.63,0.00,0
69349,38.2612233,140.8485612,4.57,6.66,-0.42,0.00,0
69526,38.2612233,140.8485612,5.15,6.32,0.76,0.00,0
69651,38.2612233,140.8485612,6.51,6.30,1.24,0.00,0
69802,38.2612233,140.8485612,6.51,5.93,1.01,0.00,0
69953,38.2612233,140.8485612,7.68,5.80,2.31,0.00,0
70074,38.2612233,140.8485612,7.39,5.74,2.79,0.00,0
70216,38.2612233,140.8485612,7.33,5.28,2.96,0.00,0
70367,38.2612233,140.8485612,7.33,5.70,3.04,0.00,0
70543,38.2612233,140.8485612,7.68,5.15,2.47,0.00,0
70669,38.2612233,140.8485612,7.75,5.53,2.33,0.00,0
70820,38.2612233,140.8485612,7.22,5.55,2.33,0.00,0
70971,38.2612233,140.8485612,7.68,5.80,2.49,0.00,0
71092,38.2612233,140.8485612,7.74,5.00,3.10,0.00,0
71234,38.2612233,140.8485612,7.28,4.92,2.79,0.00,0
71385,38.2612233,140.8485612,7.64,4.54,2.26,0.00,0
71561,38.2612233,140.8485612,7.37,4.52,2.62,0.00,0
71687,38.2612233,140.8485612,7.22,4.11,2.45,0.00,0
71838,38.2612233,140.8485612,7.47,5.01,1.66,0.00,0
71989,38.2612233,140.8485612,8.04,4.61,2.81,0.00,0
72110,38.2612233,140.8485612,7.51,5.17,2.54,0.00,0
72252,38.2612233,140.8485612,7.64,4.73,3.21,0.00,0
72403,38.2612233,140.8485612,7.74,4.84,3.64,0.00,0
72579,38.2612233,140.8485612,7.07,5.28,4.08,0.00,0
72705,38.2612233,140.8485612,7.45,5.65,3.12,0.00,0
72856,38.2612233,140.8485612,7.20,5.42,4.13,0.00,0
73007,38.2612233,140.8485612,8.08,4.23,3.65,0.00,0
73128,38.2612233,140.8485612,8.27,4.40,4.71,0.00,0
73270,38.2612233,140.8485612,8.85,4.33,6.09,0.00,0
73421,38.2612233,140.8485612,5.03,1.47,4.86,0.00,0
73597,38.2612233,140.8485612,9.31,0.24,4.44,0.00,0
73723,38.2612233,140.8485612,8.73,-0.19,4.10,0.00,0
73874,38.2612233,140.8485612,8.81,-0.49,4.06,0.00,0
73995,38.2612233,140.8485612,8.87,-0.32,3.81,0.00,0
74137,38.2612233,140.8485612,9.12,-0.45,3.33,0.00,0
74288,38.2612233,140.8485612,9.61,-0.84,3.33,0.00,0
74439,38.2612233,140.8485612,8.52,-0.51,3.56,0.00,0
74616,38.2612233,140.8485612,11.11,0.15,3.21,0.00,0
74741,38.2612233,140.8485612,8.98,-0.34,3.12,0.00,0
74892,38.2612233,140.8485612,8.98,0.36,2.93,0.00,0
75013,38.2612233,140.8485612,9.84,0.90,2.08,0.00,0
75156,38.2612233,140.8485612,9.33,0.42,2.41,0.00,0
75307,38.2612233,140.8485612,10.23,-0.63,1.57,0.00,0
75458,38.2612233,140.8485612,9.42,0.67,1.85,0.00,0
75636,38.2612233,140.8485612,9.54,-0.01,1.22,0.00,0
75760,38.2612233,140.8485612,9.46,0.34,1.18,0.00,0
75911,38.2612233,140.8485612,10.00,0.51,1.24,0.00,0
76032,38.2612233,140.8485612,9.52,0.72,1.70,0.00,0
76174,38.2612233,140.8485612,9.17,0.90,1.28,0.00,0
76325,38.2612233,140.8485612,8.83,0.97,1.03,0.00,0
76476,38.2612233,140.8485612,11.05,3.71,2.12,0.00,0
76653,38.2612233,140.8485612,10.09,2.26,2.29,0.00,0
76778,38.2612233,140.8485612,11.05,4.34,2.81,0.00,0
76929,38.2612233,140.8485612,8.46,3.08,1.72,0.00,0
77052,38.2612233,140.8485612,8.23,3.00,2.43,0.00,0
77192,38.2612233,140.8485612,8.79,2.14,2.18,0.00,0
77343,38.2612233,140.8485612,8.98,1.66,2.41,0.00,0
77494,38.2612233,140.8485612,9.54,1.60,2.28,0.00,0
77670,38.2612233,140.8485612,9.04,1.55,3.16,0.00,0
77796,38.2612233,140.8485612,9.25,0.97,4.42,0.00,0
77947,38.2612233,140.8485612,9.27,1.26,2.10,0.00,0
78068,38.2612233,140.8485612,10.21,0.82,3.58,0.00,0
78210,38.2612233,140.8485612,10.07,0.74,1.99,0.00,0
78361,38.2612233,140.8485612,9.61,-0.11,0.61,0.00,0
78512,38.2612233,140.8485612,9.58,-0.78,-0.38,0.00,0
78690,38.2612233,140.8485612,10.53,-0.17,-0.28,0.00,0
78814,38.2612233,140.8485612,9.82,-0.07,-0.84,0.00,0
78965,38.2612233,140.8485612,9.86,-0.32,-1.01,0.00,0
79086,38.2612233,140.8485612,9.48,-0.38,-1.39,0.00,0
79228,38.2612233,140.8485612,10.38,-1.09,-1.18,0.00,0
79379,38.2612233,140.8485612,10.84,-0.55,-2.47,0.00,0
79530,38.2612233,140.8485612,9.25,0.05,-1.37,0.00,0
79707,38.2612233,140.8485612,9.42,0.70,0.19,0.00,0
79832,38.2612233,140.8485612,9.50,0.67,0.55,0.00,0
79983,38.2612233,140.8485612,9.75,0.72,0.13,0.00,0
80104,38.2612233,140.8485612,10.15,0.91,1.39,0.00,0
80246,38.2612233,140.8485612,9.23,0.68,1.26,0.00,0
80397,38.2612233,140.8485612,9.29,0.93,1.47,0.00,0
80548,38.2612233,140.8485612,7.85,-0.93,7.87,0.00,0
80725,38.2612233,140.8485612,6.66,-1.43,7.95,0.00,0
80850,38.2612233,140.8485612,7.08,-5.82,2.20,0.00,0
81001,38.2612233,140.8485612,6.62,-7.08,1.32,0.00,0
81122,38.2612233,140.8485612,5.59,-7.37,-0.42,0.00,0
81264,38.2612233,140.8485612,5.59,-8.23,-1.05,0.00,0
81415,38.2612233,140.8485612,2.64,-6.82,-3.75,0.00,0
81566,38.2612233,140.8485612,6.41,-6.78,-3.12,0.00,0
81744,38.2612233,140.8485612,14.08,-2.95,-1.45,0.00,0
81868,38.2612233,140.8485612,11.66,-0.82,-4.82,0.00,0
81989,38.2612233,140.8485612,9.79,-0.09,-6.84,0.00,0
82131,38.2612233,140.8485612,8.12,-0.72,-5.82,0.00,0
82282,38.2612233,140.8485612,6.26,3.29,-6.55,0.00,0
82433,38.2612233,140.8485612,8.10,1.76,-6.89,0.00,0
82584,38.2612233,140.8485612,7.47,2.39,-11.66,0.00,0
82762,38.2612233,140.8485612,3.48,0.38,-10.02,0.00,0
82886,38.2612233,140.8485612,1.07,-0.45,-8.73,0.00,0
83007,38.2612233,140.8485612,-1.07,-1.41,-8.06,0.00,0
83149,38.2612233,140.8485612,-2.45,-3.04,-7.49,0.00,0
83300,38.2612233,140.8485612,-3.48,-4.73,-6.97,0.00,0
83451,38.2612233,140.8485612,-4.23,-4.19,-6.49,0.00,0
83602,38.2612233,140.8485612,-4.77,-5.84,-7.66,0.00,0
83782,38.2612233,140.8485612,-4.88,-6.34,-6.57,0.00,0
83905,38.2612233,140.8485612,-4.57,-4.92,-8.60,0.00,0
84026,38.2612233,140.8485612,-4.10,-5.03,-9.10,0.00,0
84167,38.2612233,140.8485612,-3.54,-6.45,-4.11,0.00,0
84318,38.2612233,140.8485612,-4.63,-5.17,-5.57,0.00,0
84469,38.2612233,140.8485612,-4.17,-7.20,-8.21,0.00,0
84620,38.2612233,140.8485612,-4.34,-6.32,-7.03,0.00,0
84799,38.2612233,140.8485612,-4.80,-7.16,-6.55,0.00,0
84922,38.2612233,140.8485612,-4.44,-7.56,-6.95,0.00,0
85043,38.2612233,140.8485612,-7.95,-5.26,-6.39,0.00,0
85186,38.2612233,140.8485612,-6.74,-2.73,-5.63,0.00,0
85337,38.2612233,140.8485612,-7.28,-4.88,-4.75,0.00,0
85488,38.2612233,140.8485612,-7.79,-4.94,-3.06,0.00,0
85639,38.2612233,140.8485612,-8.98,-4.59,-4.67,0.00,0
85819,38.2612233,140.8485612,-9.52,-3.62,-6.61,0.00,0
85941,38.2612233,140.8485612,-6.85,-3.56,-6.49,0.00,0
86062,38.2612233,140.8485612,-6.03,-2.68,-6.51,0.00,0
86204,38.2612233,140.8485612,-3.52,-2.41,-6.87,0.00,0
86355,38.2612233,140.8485612,-3.06,-1.22,-9.42,0.00,0
86506,38.2612233,140.8485612,-1.78,0.42,-9.94,0.00,0
86657,38.2612233,140.8485612,-1.45,1.41,-10.65,0.00,0
86837,38.2612233,140.8485612,-0.19,1.95,-9.52,0.00,0
86959,38.2612233,140.8485612,-0.55,2.24,-10.02,0.00,0
87080,38.2612233,140.8485612,-0.65,2.52,-9.38,0.00,0
87223,38.2612233,140.8485612,-0.76,2.39,-9.48,0.00,0
87374,38.2612233,140.8485612,-0.97,2.26,-9.31,0.00,0
87525,38.2612233,140.8485612,-1.01,1.70,-10.99,0.00,0
87676,38.2612233,140.8485612,-1.83,0.49,-10.84,0.00,0
87856,38.2612233,140.8485612,-2.75,-1.64,-10.21,0.00,0
87979,38.2612233,140.8485612,-4.42,-2.08,-8.12,0.00,0
88100,38.2612233,140.8485612,-4.44,-3.52,-6.32,0.00,0
88242,38.2612233,140.8485612,-5.32,-5.28,-5.95,0.00,0
88393,38.2612233,140.8485612,-6.85,-5.65,-5.74,0.00,0
88544,38.2612233,140.8485612,-6.76,-6.47,-5.49,0.00,0
88695,38.2612233,140.8485612,-6.89,-6.89,-5.32,0.00,0
88875,38.2612233,140.8485612,-6.03,-6.59,-5.01,0.00,0
88997,38.2612233,140.8485612,-6.32,-6.99,-4.54,0.00,0
89118,38.2612233,140.8485612,-6.80,-6.80,-4.65,0.00,0
89261,38.2612233,140.8485612,-6.47,-6.61,-3.92,0.00,0
89412,38.2612233,140.8485612,-7.37,-7.68,-4.25,0.00,0
89563,38.2612233,140.8485612,-8.00,-5.19,-1.74,0.00,0
89714,38.2612233,140.8485612,-10.97,-6.13,-2.81,0.00,0
89895,38.2612233,140.8485612,-9.42,-4.56,-1.83,0.00,0
90016,38.2612233,140.8485612,-9.46,-4.73,-1.80,0.00,0
90137,38.2612233,140.8485612,-9.33,-4.57,-1.49,0.00,0
90279,38.2612233,140.8485612,-7.97,-4.71,-2.47,0.00,0
90430,38.2612233,140.8485612,-8.73,-3.94,-3.16,0.00,0
90581,38.2612233,140.8485612,-8.83,-4.73,-2.96,0.00,0
90732,38.2612233,140.8485612,-8.73,-4.00,-2.62,0.00,0
90913,38.2612233,140.8485612,-8.67,-5.11,-3.19,0.00,0
91036,38.2612233,140.8485612,-8.85,-4.56,-3.41,0.00,0
91158,38.2612233,140.8485612,-8.41,-4.59,-3.21,0.00,0
91297,38.2612233,140.8485612,-9.15,-4.82,-3.00,0.00,0
91448,38.2612233,140.8485612,-9.15,-4.38,-3.23,0.00,0
91599,38.2612233,140.8485612,-8.62,-4.38,-3.33,0.00,0
91750,38.2612233,140.8485612,-8.75,-4.11,-3.18,0.00,0
91931,38.2612233,140.8485612,-8.29,-4.19,-3.42,0.00,0
92056,38.2612233,140.8485612,-9.42,-4.54,-3.60,0.00,0
92179,38.2612233,140.8485612,-8.79,-4.15,-2.37,0.00,0
92315,38.2612233,140.8485612,-8.67,-4.11,-2.75,0.00,0
92466,38.2612233,140.8485612,-8.92,-4.21,-3.18,0.00,0
92617,38.2612233,140.8485612,-9.48,-2.12,-2.18,0.00,0
92768,38.2612233,140.8485612,-10.19,-5.32,-3.25,0.00,0
92950,38.2612233,140.8485612,-9.81,-4.08,-2.49,0.00,0
93073,38.2612233,140.8485612,-8.90,-3.67,-1.36,0.00,0
93196,38.2612233,140.8485612,-9.42,-4.46,-1.60,0.00,0
93334,38.2612233,140.8485612,-9.42,-3.92,-3.00,0.00,0
93485,38.2612233,140.8485612,-9.10,-4.31,-2.45,0.00,0
93636,38.2612233,140.8485612,-8.43,-3.29,-2.87,0.00,0
93787,38.2612233,140.8485612,-5.57,-4.69,-1.39,0.00,0
93968,38.2612233,140.8485612,-7.72,-3.75,-3.12,0.00,0
94091,38.2612233,140.8485612,-8.81,-4.57,-3.29,0.00,0
94214,38.2612233,140.8485612,-7.91,-5.11,-4.40,0.00,0
94352,38.2612233,140.8485612,-8.31,-4.46,-4.71,0.00,0
94503,38.2612233,140.8485612,-8.31,-4.73,-3.52,0.00,0
94654,38.2612233,140.8485612,-8.02,-5.93,-4.44,0.00,0
94805,38.2612233,140.8485612,-8.21,-4.29,-2.29,0.00,0
94986,38.2612233,140.8485612,-8.43,-5.46,-2.24,0.00,0
95109,38.2612233,140.8485612,-8.29,-5.49,-2.96,0.00,0
95232,38.2612233,140.8485612,-8.14,-5.74,-3.85,0.00,0
95371,38.2612233,140.8485612,-7.54,-4.71,-3.02,0.00,0
95522,38.2612233,140.8485612,-8.16,-4.75,-3.25,0.00,0
95673,38.2612233,140.8485612,-6.26,-3.56,-0.90,0.00,0
95824,38.2612233,140.8485612,-7.89,-4.94,-2.89,0.00,0
96004,38.2612233,140.8485612,-7.45,-4.38,-0.86,0.00,0
96128,38.2612233,140.8485612,-9.00,-3.44,-1.64,0.00,0
96250,38.2612233,140.8485612,-9.44,-4.27,-3.79,0.00,0
96389,38.2612233,140.8485612,-7.58,-3.14,-1.87,0.00,0
96540,38.2612233,140.8485612,-8.56,-4.50,-3.46,0.00,0
96691,38.2612233,140.8485612,-8.18,-3.14,-2.54,0.00,0
96842,38.2612233,140.8485612,-9.23,-4.69,-5.19,0.00,0
97023,38.2612233,140.8485612,-9.69,-4.21,-1.47,0.00,0
97146,38.2612233,140.8485612,-10.21,-3.90,-3.60,0.00,0
97269,38.2612233,140.8485612,-8.14,-3.71,-2.83,0.00,0
97407,38.2612233,140.8485612,-10.17,-3.98,-3.35,0.00,0
97558,38.2612233,140.8485612,-7.70,-1.74,-3.67,0.00,0
97709,38.2612233,140.8485612,-8.16,-1.28,0.53,0.00,0
97860,38.2612233,140.8485612,-9.33,-3.52,-1.89,0.00,0
98041,38.2612233,140.8485612,-8.58,-2.93,-3.10,0.00,0
98164,38.2612233,140.8485612,-7.93,-2.66,-4.33,0.00,0
98287,38.2612233,140.8485612,-8.79,-3.88,-6.24,0.00,0
98425,38.2612233,140.8485612,-5.76,-1.11,-6.47,0.00,0
98576,38.2612233,140.8485612,-4.33,-0.34,-9.27,0.00,0
98727,38.2612233,140.8485612,-3.37,0.86,-8.75,0.00,0
98878,38.2612233,140.8485612,-6.45,0.42,-10.55,0.00,0
99059,38.2612233,140.8485612,-1.20,1.34,-7.64,0.00,0
99182,38.2612233,140.8485612,-2.33,3.39,-9.17,0.00,0
99305,38.2612233,140.8485612,-1.13,5.61,-9.92,0.00,0
99444,38.2612233,140.8485612,-2.52,2.70,-9.27,0.00,0
99595,38.2612233,140.8485612,-2.75,2.43,-9.84,0.00,0
99746,38.2612233,140.8485612,-3.04,2.06,-9.69,0.00,0
99897,38.2612233,140.8485612,-3.12,0.84,-7.70,0.00,0
100077,38.2612233,140.8485612,-4.98,-0.36,-7.83,0.00,0
100201,38.2612233,140.8485612,-5.38,-0.86,-7.14,0.00,0
100324,38.2612233,140.8485612,-5.55,-0.86,-8.60,0.00,0
100462,38.2612233,140.8485612,-6.22,-0.28,-6.59,0.00,0
100613,38.2612233,140.8485612,-7.93,-3.06,-8.98,0.00,0
100764,38.2612233,140.8485612,-6.45,-0.55,-6.80,0.00,0
100915,38.2612233,140.8485612,-7.47,-0.68,-7.01,0.00,0
101097,38.2612233,140.8485612,-8.90,-3.23,-6.93,0.00,0
101220,38.2612233,140.8485612,-7.64,-1.55,-7.58,0.00,0
101342,38.2612233,140.8485612,-6.97,-3.29,-6.39,0.00,0
101481,38.2612233,140.8485612,-5.53,-1.14,-9.71,0.00,0
101632,38.2612233,140.8485612,-6.59,-1.30,-7.37,0.00,0
101783,38.2612233,140.8485612,-8.87,-3.08,-5.32,0.00,0
101934,38.2612233,140.8485612,-6.95,-0.97,-5.32,0.00,0
102116,38.2612233,140.8485612,-4.84,0.17,-10.38,0.00,0
102239,38.2612233,140.8485612,-4.54,2.28,-7.97,0.00,0
102362,38.2612233,140.8485612,-3.06,2.60,-7.83,0.00,0
102500,38.2612233,140.8485612,-2.39,2.47,-9.33,0.00,0
102651,38.2612233,140.8485612,-1.20,5.07,-8.87,0.00,0
102802,38.2612233,140.8485612,2.58,7.35,-7.74,0.00,0
102953,38.2612233,140.8485612,1.80,7.26,-5.59,0.00,0
103133,38.2612233,140.8485612,2.47,7.70,-5.15,0.00,0
103256,38.2612233,140.8485612,1.36,7.43,-5.34,0.00,0
103379,38.2612233,140.8485612,0.88,8.02,-6.89,0.00,0
103518,38.2612233,140.8485612,0.49,7.07,-6.13,0.00,0
103669,38.2612233,140.8485612,-0.86,6.03,-7.75,0.00,0
103820,38.2612233,140.8485612,-2.60,3.79,-6.72,0.00,0
103971,38.2612233,140.8485612,-0.34,6.38,-8.10,0.00,0
104152,38.2612233,140.8485612,-4.31,6.57,-6.84,0.00,0
104276,38.2612233,140.8485612,-2.79,5.42,-6.13,0.00,0
104399,38.2612233,140.8485612,-5.82,4.88,-3.88,0.00,0
104536,38.2612233,140.8485612,-3.85,7.26,-4.77,0.00,0
104687,38.2612233,140.8485612,-4.25,6.91,-4.44,0.00,0
104838,38.2612233,140.8485612,-5.65,6.91,-4.21,0.00,0
104989,38.2612233,140.8485612,-4.21,7.01,-4.33,0.00,0
105170,38.2612233,140.8485612,-4.90,7.26,-3.16,0.00,0
105293,38.2612233,140.8485612,-5.07,7.51,-3.48,0.00,0
105416,38.2612233,140.8485612,-5.24,6.76,-3.44,0.00,0
105554,38.2612233,140.8485612,-5.84,7.26,-2.96,0.00,0
105705,38.2612233,140.8485612,-5.53,6.91,-3.10,0.00,0
105856,38.2612233,140.8485612,-5.00,6.82,-3.18,0.00,0
106007,38.2612233,140.8485612,-5.44,6.59,-3.00,0.00,0
106188,38.2612233,140.8485612,-5.05,7.24,-4.10,0.00,0
106311,38.2612233,140.8485612,-4.88,6.39,-3.19,0.00,0
106434,38.2612233,140.8485612,-5.38,6.95,-3.60,0.00,0
106571,38.2612233,140.8485612,-5.51,6.51,-3.42,0.00,0
106722,38.2612233,140.8485612,-5.61,6.66,-3.33,0.00,0
106873,38.2612233,140.8485612,-6.39,5.99,-4.61,0.00,0
106997,38.2612233,140.8485612,-5.13,6.45,-5.76,0.00,0
107136,38.2612233,140.8485612,-5.72,4.02,-4.08,0.00,0
107317,38.2612233,140.8485612,-5.92,3.90,-5.84,0.00,0
107440,38.2612233,140.8485612,-5.24,2.83,-6.16,0.00,0
107589,38.2612233,140.8485612,-4.38,4.13,-6.32,0.00,0
107740,38.2612233,140.8485612,-5.44,4.71,-7.49,0.00,0
107891,38.2612233,140.8485612,-4.44,4.77,-7.28,0.00,0
108013,38.2612233,140.8485612,-4.48,3.77,-6.05,0.00,0
108154,38.2612233,140.8485612,-3.92,5.13,-6.74,0.00,0
108337,38.2612233,140.8485612,-5.42,6.16,-6.64,0.00,0
108460,38.2612233,140.8485612,-5.86,4.13,-6.30,0.00,0
108607,38.2612233,140.8485612,-5.15,6.68,-5.88,0.00,0
108758,38.2612233,140.8485612,-5.76,5.15,-5.53,0.00,0
108909,38.2612233,140.8485612,-5.15,6.62,-5.74,0.00,0
109031,38.2612233,140.8485612,-5.26,5.26,-5.23,0.00,0
109171,38.2612233,140.8485612,-5.97,5.78,-5.93,0.00,0
109352,38.2612233,140.8485612,-5.11,4.73,-5.21,0.00,0
109475,38.2612233,140.8485612,-5.03,5.36,-5.61,0.00,0
109624,38.2612233,140.8485612,-5.00,5.03,-4.54,0.00,0
109775,38.2612233,140.8485612,-6.64,4.15,-5.70,0.00,0
109926,38.2612233,140.8485612,-5.19,4.86,-5.93,0.00,0
110048,38.2612233,140.8485612,-6.20,4.08,-5.11,0.00,0
110189,38.2612233,140.8485612,-5.99,3.48,-6.15,0.00,0
110370,38.2612233,140.8485612,-6.41,3.71,-6.74,0.00,0
110493,38.2612233,140.8485612,-5.80,5.26,-7.12,0.00,0
110642,38.2612233,140.8485612,-5.59,3.67,-6.57,0.00,0
110793,38.2612233,140.8485612,-5.69,3.23,-7.14,0.00,0
110944,38.2612233,140.8485612,-4.71,3.92,-7.30,0.00,0
111068,38.2612233,140.8485612,-5.15,2.66,-7.75,0.00,0
111207,38.2612233,140.8485612,-4.88,0.90,-8.04,0.00,0
111388,38.2612233,140.8485612,-5.23,0.36,-8.29,0.00,0
111511,38.2612233,140.8485612,-6.30,0.00,-7.52,0.00,0
111660,38.2612233,140.8485612,-6.45,-4.08,-12.22,0.00,0
111811,38.2612233,140.8485612,-6.78,0.19,-7.20,0.00,0
111962,38.2612233,140.8485612,-7.03,-0.11,-6.84,0.00,0
112084,38.2612233,140.8485612,-7.22,-0.24,-6.70,0.00,0
112225,38.2612233,140.8485612,-7.41,-0.26,-6.64,0.00,0
112409,38.2612233,140.8485612,-7.05,-0.17,-6.41,0.00,0
112532,38.2612233,140.8485612,-7.62,0.34,-6.39,0.00,0
112678,38.2612233,140.8485612,-7.93,0.51,-6.39,0.00,0
112829,38.2612233,140.8485612,-7.07,-0.57,-4.25,0.00,0
112980,38.2612233,140.8485612,-7.22,-0.51,-5.72,0.00,0
113102,38.2612233,140.8485612,-7.08,0.22,-7.01,0.00,0
113244,38.2612233,140.8485612,-6.18,-0.13,-5.76,0.00,0
113426,38.2612233,140.8485612,-7.43,0.65,-7.22,0.00,0
113549,38.2612233,140.8485612,-6.18,0.78,-6.64,0.00,0
113698,38.2612233,140.8485612,-6.43,0.22,-5.69,0.00,0
113849,38.2612233,140.8485612,-6.95,-0.17,-7.43,0.00,0
114000,38.2612233,140.8485612,-6.70,0.55,-6.80,0.00,0
114122,38.2612233,140.8485612,-6.76,-0.22,-7.39,0.00,0
114264,38.2612233,140.8485612,-6.87,0.57,-6.38,0.00,0
114445,38.2612233,140.8485612,-6.03,0.97,-6.93,0.00,0
114568,38.2612233,140.8485612,-6.72,0.15,-5.67,0.00,0
114717,38.2612233,140.8485612,-6.22,0.40,-9.94,0.00,0
114868,38.2612233,140.8485612,-6.66,0.32,-6.07,0.00,0
114993,38.2612233,140.8485612,-8.14,-0.86,-7.62,0.00,0
115130,38.2612233,140.8485612,-6.70,-0.99,-7.56,0.00,0
115281,38.2612233,140.8485612,-7.47,-1.37,-5.57,0.00,0
115463,38.2612233,140.8485612,-7.01,-1.76,-6.15,0.00,0
115586,38.2612233,140.8485612,-8.00,-1.16,-6.22,0.00,0
115734,38.2612233,140.8485612,-7.12,-1.39,-6.18,0.00,0
115885,38.2612233,140.8485612,-8.16,-1.87,-7.16,0.00,0
116007,38.2612233,140.8485612,-6.11,0.11,-3.60,0.00,0
116148,38.2612233,140.8485612,-7.79,-1.57,-5.69,0.00,0
116299,38.2612233,140.8485612,-7.83,-1.57,-5.19,0.00,0
116482,38.2612233,140.8485612,-8.37,-2.06,-6.43,0.00,0
116605,38.2612233,140.8485612,-9.23,-1.53,-4.29,0.00,0
116752,38.2612233,140.8485612,-8.20,-1.57,-3.79,0.00,0
116903,38.2612233,140.8485612,-7.89,-0.84,-4.21,0.00,0
117054,38.2612233,140.8485612,-8.35,-0.91,-5.76,0.00,0
117176,38.2612233,140.8485612,-9.19,-2.87,-4.94,0.00,0
117318,38.2612233,140.8485612,-8.00,-2.18,-6.16,0.00,0
117500,38.2612233,140.8485612,-4.44,1.28,-7.43,0.00,0
117622,38.2612233,140.8485612,-1.43,-0.97,-13.43,0.00,0
117771,38.2612233,140.8485612,-2.73,-0.99,-8.12,0.00,0
117922,38.2612233,140.8485612,-6.76,0.30,-10.13,0.00,0
118073,38.2612233,140.8485612,-4.77,0.82,-11.28,0.00,0
118196,38.2612233,140.8485612,-7.56,-0.74,-10.28,0.00,0
118335,38.2612233,140.8485612,-6.45,-2.83,-6.38,0.00,0
118517,38.2612233,140.8485612,-8.10,-4.69,-4.84,0.00,0
118639,38.2612233,140.8485612,-7.66,-4.88,-3.71,0.00,0
118788,38.2612233,140.8485612,-8.23,-6.38,-3.06,0.00,0
118939,38.2612233,140.8485612,-7.93,-6.78,-1.85,0.00,0
119090,38.2612233,140.8485612,-7.07,-7.10,-2.33,0.00,0
119212,38.2612233,140.8485612,-6.84,-7.33,-1.36,0.00,0
119353,38.2612233,140.8485612,-7.51,-7.77,-1.20,0.00,0
119535,38.2612233,140.8485612,-7.05,-8.10,-0.49,0.00,0
119657,38.2612233,140.8485612,-6.97,-8.02,-0.30,0.00,0
119806,38.2612233,140.8485612,-6.39,-7.83,-0.93,0.00,0
119957,38.2612233,140.8485612,-6.64,-8.44,-2.10,0.00,0
120079,38.2612233,140.8485612,-6.93,-7.83,-0.72,0.00,0
120220,38.2612233,140.8485612,-6.66,-7.56,-0.65,0.00,0
120371,38.2612233,140.8485612,-6.85,-8.04,-0.78,0.00,0
120553,38.2612233,140.8485612,-7.07,-8.96,-0.28,0.00,0
120676,38.2612233,140.8485612,-7.08,-7.45,-0.17,0.00,0
120824,38.2612233,140.8485612,-8.66,-8.16,2.03,0.00,0
120975,38.2612233,140.8485612,-6.26,-9.31,-0.82,0.00,0
121097,38.2612233,140.8485612,-4.46,-5.11,0.86,0.00,0
121239,38.2612233,140.8485612,0.68,-3.71,4.65,0.00,0
121390,38.2612233,140.8485612,-4.71,-6.49,-1.22,0.00,0
121572,38.2612233,140.8485612,-6.01,-8.77,-1.93,0.00,0
121696,38.2612233,140.8485612,-5.63,-8.06,-0.68,0.00,0
121843,38.2612233,140.8485612,-3.92,-9.23,-0.40,0.00,0
121994,38.2612233,140.8485612,-7.83,-7.98,-4.40,0.00,0
122116,38.2612233,140.8485612,-7.77,-8.12,-0.84,0.00,0
122256,38.2612233,140.8485612,-5.11,-7.05,-4.10,0.00,0
122407,38.2612233,140.8485612,-6.99,-7.07,-5.19,0.00,0
122589,38.2612233,140.8485612,-4.92,-3.90,-7.14,0.00,0
122712,38.2612233,140.8485612,-4.27,-0.78,-7.45,0.00,0
122860,38.2612233,140.8485612,-6.84,-0.61,-7.35,0.00,0
123011,38.2612233,140.8485612,-6.39,0.07,-7.64,0.00,0
123133,38.2612233,140.8485612,-6.24,-0.59,-8.29,0.00,0
123274,38.2612233,140.8485612,-5.99,0.11,-9.31,0.00,0
123425,38.2612233,140.8485612,-6.36,-1.22,-9.56,0.00,0
123607,38.2612233,140.8485612,-5.72,-6.32,-6.61,0.00,0
123730,38.2612233,140.8485612,-2.03,-4.08,-7.52,0.00,0
123878,38.2612233,140.8485612,-2.79,-4.06,-7.95,0.00,0
124029,38.2612233,140.8485612,-2.81,-5.07,-7.85,0.00,0
124151,38.2612233,140.8485612,-1.87,-6.34,-7.58,0.00,0
124292,38.2612233,140.8485612,-1.78,-4.98,-7.70,0.00,0
124443,38.2612233,140.8485612,-3.08,-7.22,-7.51,0.00,0
124625,38.2612233,140.8485612,-1.59,-7.26,-7.41,0.00,0
124748,38.2612233,140.8485612,-1.62,-7.03,-6.55,0.00,0
124896,38.2612233,140.8485612,-1.66,-7.64,-7.18,0.00,0
125047,38.2612233,140.8485612,-1.74,-7.75,-6.70,0.00,0
125169,38.2612233,140.8485612,-1.83,-7.77,-7.20,0.00,0
125310,38.2612233,140.8485612,-1.18,-7.97,-6.43,0.00,0
125461,38.2612233,140.8485612,-1.45,-8.48,-6.95,0.00,0
125643,38.2612233,140.8485612,-0.28,-8.50,-6.30,0.00,0
125767,38.2612233,140.8485612,-0.09,-8.77,-6.16,0.00,0
125914,38.2612233,140.8485612,1.55,-9.02,-5.76,0.00,0
126065,38.2612233,140.8485612,2.26,-9.82,-3.79,0.00,0
126187,38.2612233,140.8485612,3.92,-9.84,-1.47,0.00,0
126328,38.2612233,140.8485612,3.75,-9.71,-0.67,0.00,0
126479,38.2612233,140.8485612,4.08,-9.33,-0.17,0.00,0
126660,38.2612233,140.8485612,3.56,-10.17,0.28,0.00,0
126783,38.2612233,140.8485612,3.44,-9.63,-0.07,0.00,0
126932,38.2612233,140.8485612,2.72,-10.30,0.38,0.00,0
127083,38.2612233,140.8485612,2.12,-10.00,0.88,0.00,0
127206,38.2612233,140.8485612,2.66,-10.80,0.49,0.00,0
127346,38.2612233,140.8485612,2.20,-9.94,0.97,0.00,0
127497,38.2612233,140.8485612,1.74,-10.40,0.78,0.00,0
127678,38.2612233,140.8485612,1.87,-10.38,0.24,0.00,0
127800,38.2612233,140.8485612,3.35,-9.88,-0.34,0.00,0
127950,38.2612233,140.8485612,1.66,-10.02,-0.91,0.00,0
128072,38.2612233,140.8485612,1.99,-10.05,-1.32,0.00,0
128213,38.2612233,140.8485612,3.12,-10.09,-0.24,0.00,0
128364,38.2612233,140.8485612,2.58,-9.94,-0.13,0.00,0
128515,38.2612233,140.8485612,2.64,-9.40,1.24,0.00,0
128695,38.2612233,140.8485612,2.29,-9.92,2.66,0.00,0
128817,38.2612233,140.8485612,1.43,-9.56,3.50,0.00,0
128968,38.2612233,140.8485612,1.53,-9.82,3.50,0.00,0
129090,38.2612233,140.8485612,0.97,-9.75,3.77,0.00,0
129231,38.2612233,140.8485612,1.13,-9.73,4.27,0.00,0
129382,38.2612233,140.8485612,0.24,-8.92,4.40,0.00,0
129533,38.2612233,140.8485612,0.28,-8.54,4.38,0.00,0
129713,38.2612233,140.8485612,0.36,-9.52,4.90,0.00,0
129838,38.2612233,140.8485612,0.05,-9.65,5.44,0.00,0
129986,38.2612233,140.8485612,-0.22,-9.29,5.21,0.00,0
130108,38.2612233,140.8485612,0.80,-8.73,4.06,0.00,0
130249,38.2612233,140.8485612,0.26,-9.25,5.95,0.00,0
130400,38.2612233,140.8485612,0.67,-8.29,5.49,0.00,0
130551,38.2612233,140.8485612,0.44,-9.38,4.79,0.00,0
130731,38.2612233,140.8485612,1.60,-8.85,6.55,0.00,0
130854,38.2612233,140.8485612,1.49,-8.77,6.20,0.00,0
131004,38.2612233,140.8485612,3.06,-8.04,6.55,0.00,0
131128,38.2612233,140.8485612,2.29,-8.35,6.43,0.00,0
131267,38.2612233,140.8485612,3.27,-8.08,5.59,0.00,0
131418,38.2612233,140.8485612,3.75,-7.49,4.75,0.00,0
131569,38.2612233,140.8485612,4.15,-7.07,6.05,0.00,0
131749,38.2612233,140.8485612,4.42,-7.05,6.93,0.00,0
131872,38.2612233,140.8485612,4.06,-6.15,6.97,0.00,0
132022,38.2612233,140.8485612,3.65,-5.76,6.53,0.00,0
132144,38.2612233,140.8485612,5.09,-6.97,6.28,0.00,0
132285,38.2612233,140.8485612,3.60,-7.03,6.34,0.00,0
132436,38.2612233,140.8485612,4.50,-6.68,6.78,0.00,0
132587,38.2612233,140.8485612,5.74,-6.24,6.72,0.00,0
132767,38.2612233,140.8485612,4.21,-5.95,7.58,0.00,0
132890,38.2612233,140.8485612,4.23,-5.28,6.70,0.00,0
133040,38.2612233,140.8485612,3.33,-5.51,7.58,0.00,0
133162,38.2612233,140.8485612,3.39,-5.44,8.46,0.00,0
133303,38.2612233,140.8485612,2.49,-4.63,8.71,0.00,0
133454,38.2612233,140.8485612,3.92,-5.53,8.83,0.00,0
133605,38.2612233,140.8485612,2.12,-5.40,8.31,0.00,0
133785,38.2612233,140.8485612,2.91,-5.84,7.98,0.00,0
133910,38.2612233,140.8485612,3.52,-4.17,7.64,0.00,0
134058,38.2612233,140.8485612,2.35,-5.30,8.08,0.00,0
134180,38.2612233,140.8485612,3.39,-5.63,8.64,0.00,0
134322,38.2612233,140.8485612,3.08,-5.07,8.06,0.00,0
134473,38.2612233,140.8485612,3.00,-5.13,8.54,0.00,0
134624,38.2612233,140.8485612,3.00,-5.38,9.06,0.00,0
134804,38.2612233,140.8485612,3.90,-6.57,7.95,0.00,0
134926,38.2612233,140.8485612,7.18,-10.92,4.42,0.00,0
135077,38.2612233,140.8485612,4.02,-8.96,1.74,0.00,0
135199,38.2612233,140.8485612,6.93,-6.13,-0.90,0.00,0
135340,38.2612233,140.8485612,9.38,-5.13,-3.39,0.00,0
135491,38.2612233,140.8485612,9.25,-2.06,-3.85,0.00,0
135642,38.2612233,140.8485612,8.89,-1.13,-2.95,0.00,0
135823,38.2612233,140.8485612,8.87,0.11,-3.27,0.00,0
135946,38.2612233,140.8485612,7.91,-1.37,-2.54,0.00,0
136069,38.2612233,140.8485612,7.93,-3.60,-2.14,0.00,0
136207,38.2612233,140.8485612,9.25,-4.54,1.89,0.00,0
136358,38.2612233,140.8485612,3.35,-8.29,6.13,0.00,0
136509,38.2612233,140.8485612,1.43,-9.17,6.47,0.00,0
136660,38.2612233,140.8485612,-4.15,-6.36,7.51,0.00,0
136841,38.2612233,140.8485612,-5.30,-4.69,7.62,0.00,0
136964,38.2612233,140.8485612,-4.34,-6.38,8.83,0.00,0
137087,38.2612233,140.8485612,-1.45,-9.42,8.10,0.00,0
137225,38.2612233,140.8485612,0.42,-10.21,7.52,0.00,0
137376,38.2612233,140.8485612,3.35,-7.60,7.72,0.00,0
137527,38.2612233,140.8485612,0.53,-8.67,6.72,0.00,0
137678,38.2612233,140.8485612,0.26,-8.35,6.47,0.00,0
137858,38.2612233,140.8485612,2.70,-8.62,4.92,0.00,0
137983,38.2612233,140.8485612,3.94,-8.35,4.54,0.00,0
138105,38.2612233,140.8485612,3.23,-8.90,5.49,0.00,0
138244,38.2612233,140.8485612,4.86,-7.64,5.17,0.00,0
138395,38.2612233,140.8485612,7.79,-10.42,6.61,0.00,0
138546,38.2612233,140.8485612,1.22,-4.17,2.45,0.00,0
138697,38.2612233,140.8485612,0.30,-8.18,5.65,0.00,0
138877,38.2612233,140.8485612,3.85,-4.11,9.10,0.00,0
139000,38.2612233,140.8485612,-0.30,-9.36,8.46,0.00,0
139122,38.2612233,140.8485612,-2.28,-3.10,10.32,0.00,0
139263,38.2612233,140.8485612,-4.65,-2.31,10.02,0.00,0
139414,38.2612233,140.8485612,-3.64,-5.21,8.00,0.00,0
139565,38.2612233,140.8485612,-4.94,-4.75,9.08,0.00,0
139716,38.2612233,140.8485612,-6.05,-3.64,7.03,0.00,0
139897,38.2612233,140.8485612,-6.93,-4.13,6.72,0.00,0
140020,38.2612233,140.8485612,-6.64,-4.17,7.08,0.00,0
140143,38.2612233,140.8485612,-6.68,-4.57,7.68,0.00,0
140281,38.2612233,140.8485612,-8.27,-3.50,7.70,0.00,0
140432,38.2612233,140.8485612,-9.02,-1.41,7.70,0.00,0
140583,38.2612233,140.8485612,-7.87,3.14,6.85,0.00,0
140734,38.2612233,140.8485612,-7.79,2.49,4.67,0.00,0
140914,38.2612233,140.8485612,-8.46,3.29,3.16,0.00,0
141037,38.2612233,140.8485612,-8.67,5.13,4.02,0.00,0
141160,38.2612233,140.8485612,-7.30,2.62,3.75,0.00,0
141300,38.2612233,140.8485612,-5.67,-2.01,1.34,0.00,0
141451,38.2612233,140.8485612,-3.56,-10.46,-3.75,0.00,0
141602,38.2612233,140.8485612,-1.57,-12.18,-3.83,0.00,0
141753,38.2612233,140.8485612,-1.51,-10.03,-2.08,0.00,0
141936,38.2612233,140.8485612,-0.03,-9.58,-3.75,0.00,0
142061,38.2612233,140.8485612,-0.72,-10.05,-3.65,0.00,0
142184,38.2612233,140.8485612,-0.59,-10.05,-3.39,0.00,0
142319,38.2612233,140.8485612,-0.03,-9.79,-3.69,0.00,0
142470,38.2612233,140.8485612,0.26,-9.94,-3.85,0.00,0
142621,38.2612233,140.8485612,0.26,-9.48,-4.25,0.00,0
142772,38.2612233,140.8485612,0.34,-9.90,-3.64,0.00,0
142953,38.2612233,140.8485612,0.17,-9.98,-3.67,0.00,0
143076,38.2612233,140.8485612,0.65,-9.79,-3.44,0.00,0
143198,38.2612233,140.8485612,1.37,-10.02,-3.50,0.00,0
143338,38.2612233,140.8485612,0.86,-10.51,-2.56,0.00,0
143489,38.2612233,140.8485612,1.60,-10.42,-2.56,0.00,0
143640,38.2612233,140.8485612,1.39,-10.59,-1.78,0.00,0
143791,38.2612233,140.8485612,0.88,-10.65,-1.60,0.00,0
143973,38.2612233,140.8485612,1.20,-10.78,-1.60,0.00,0
144096,38.2612233,140.8485612,0.61,-10.82,-1.26,0.00,0
144219,38.2612233,140.8485612,0.44,-10.44,-2.31,0.00,0
144355,38.2612233,140.8485612,0.13,-9.56,-2.95,0.00,0
144506,38.2612233,140.8485612,0.72,-10.13,-2.96,0.00,0
144657,38.2612233,140.8485612,1.26,-9.88,-3.02,0.00,0
144808,38.2612233,140.8485612,2.54,-10.25,-2.93,0.00,0
144990,38.2612233,140.8485612,2.05,-9.38,-3.12,0.00,0
145113,38.2612233,140.8485612,3.02,-9.90,-3.87,0.00,0
145236,38.2612233,140.8485612,3.04,-10.00,-2.96,0.00,0
145374,38.2612233,140.8485612,3.00,-9.88,-2.73,0.00,0
145525,38.2612233,140.8485612,2.62,-9.94,-3.00,0.00,0
145676,38.2612233,140.8485612,3.81,-10.09,-2.77,0.00,0
145827,38.2612233,140.8485612,3.31,-9.81,-3.25,0.00,0
146008,38.2612233,140.8485612,2.45,-9.56,-3.54,0.00,0
146132,38.2612233,140.8485612,3.87,-9.35,-1.87,0.00,0
146255,38.2612233,140.8485612,3.06,-9.44,-2.73,0.00,0
146393,38.2612233,140.8485612,3.08,-9.23,-2.98,0.00,0
146544,38.2612233,140.8485612,3.56,-9.61,-3.62,0.00,0
146695,38.2612233,140.8485612,3.77,-9.08,-4.61,0.00,0
146846,38.2612233,140.8485612,4.31,-9.61,-3.42,0.00,0
147026,38.2612233,140.8485612,3.69,-9.04,-3.58,0.00,0
147149,38.2612233,140.8485612,4.29,-8.64,-2.01,0.00,0
147272,38.2612233,140.8485612,4.65,-8.60,-3.31,0.00,0
147412,38.2612233,140.8485612,5.40,-9.08,-2.81,0.00,0
147563,38.2612233,140.8485612,4.46,-9.35,-3.12,0.00,0
147714,38.2612233,140.8485612,4.34,-3.14,-4.08,0.00,0
147865,38.2612233,140.8485612,8.12,-7.39,-5.88,0.00,0
148053,38.2612233,140.8485612,4.42,-5.84,-5.82,0.00,0
148176,38.2612233,140.8485612,4.94,-3.33,-7.10,0.00,0
148298,38.2612233,140.8485612,6.32,-3.25,-8.71,0.00,0
148430,38.2612233,140.8485612,5.17,-3.29,-8.87,0.00,0
148581,38.2612233,140.8485612,4.40,-1.32,-8.62,0.00,0
148732,38.2612233,140.8485612,5.28,-1.97,-8.62,0.00,0
148883,38.2612233,140.8485612,4.77,-2.03,-8.18,0.00,0
149064,38.2612233,140.8485612,4.02,-1.18,-7.95,0.00,0
149187,38.2612233,140.8485612,4.88,-1.95,-8.46,0.00,0
149310,38.2612233,140.8485612,4.79,-2.08,-8.83,0.00,0
149449,38.2612233,140.8485612,4.80,-1.85,-8.27,0.00,0
149600,38.2612233,140.8485612,4.71,-1.83,-8.69,0.00,0
149751,38.2612233,140.8485612,4.63,-0.97,-8.73,0.00,0
149902,38.2612233,140.8485612,5.82,-1.91,-8.83,0.00,0
150083,38.2612233,140.8485612,3.44,-0.49,-8.58,0.00,0
150208,38.2612233,140.8485612,5.32,-2.08,-8.71,0.00,0
150331,38.2612233,140.8485612,3.98,-1.32,-7.89,0.00,0
150467,38.2612233,140.8485612,6.28,-2.28,-9.90,0.00,0
150618,38.2612233,140.8485612,5.36,0.28,-6.30,0.00,0
150769,38.2612233,140.8485612,6.55,-1.45,-7.64,0.00,0
150920,38.2612233,140.8485612,5.57,-2.26,-8.14,0.00,0
151101,38.2612233,140.8485612,4.54,-1.26,-8.66,0.00,0
151224,38.2612233,140.8485612,4.59,-0.70,-7.58,0.00,0
151354,38.2612233,140.8485612,4.77,-1.41,-7.95,0.00,0
151485,38.2612233,140.8485612,4.61,-1.24,-8.73,0.00,0
151636,38.2612233,140.8485612,4.71,-1.55,-8.85,0.00,0
151787,38.2612233,140.8485612,4.80,-1.97,-8.81,0.00,0
151938,38.2612233,140.8485612,4.06,-1.03,-8.20,0.00,0
152119,38.2612233,140.8485612,5.51,-2.26,-9.96,0.00,0
152242,38.2612233,140.8485612,5.09,-1.83,-8.44,0.00,0
152365,38.2612233,140.8485612,5.65,-1.70,-8.16,0.00,0
152502,38.2612233,140.8485612,5.49,-1.62,-8.25,0.00,0
152653,38.2612233,140.8485612,5.86,-2.26,-8.25,0.00,0
152804,38.2612233,140.8485612,5.59,-1.30,-7.66,0.00,0
152955,38.2612233,140.8485612,5.42,-2.20,-8.31,0.00,0
153136,38.2612233,140.8485612,4.90,-3.98,-8.87,0.00,0
153259,38.2612233,140.8485612,4.31,-2.83,-8.27,0.00,0
153381,38.2612233,140.8485612,5.36,-3.85,-9.42,0.00,0
153521,38.2612233,140.8485612,3.88,-2.31,-9.77,0.00,0
153672,38.2612233,140.8485612,3.19,1.05,-9.10,0.00,0
153823,38.2612233,140.8485612,0.28,0.24,-9.27,0.00,0
153974,38.2612233,140.8485612,-1.26,-0.70,-10.34,0.00,0
154157,38.2612233,140.8485612,-1.72,-0.78,-10.49,0.00,0
154281,38.2612233,140.8485612,-1.95,-1.60,-9.82,0.00,0
154404,38.2612233,140.8485612,-4.29,-1.57,-7.39,0.00,0
154540,38.2612233,140.8485612,-9.21,0.49,-3.12,0.00,0
154691,38.2612233,140.8485612,-9.10,-1.47,4.29,0.00,0
154842,38.2612233,140.8485612,-9.58,-1.39,4.63,0.00,0
154993,38.2612233,140.8485612,-7.08,-0.53,4.69,0.00,0
155174,38.2612233,140.8485612,-7.85,-0.63,6.41,0.00,0
155297,38.2612233,140.8485612,-6.95,-2.49,3.52,0.00,0
155420,38.2612233,140.8485612,-9.12,-0.42,4.27,0.00,0
155559,38.2612233,140.8485612,-9.69,0.84,3.73,0.00,0
155710,38.2612233,140.8485612,-9.75,2.87,4.00,0.00,0
155861,38.2612233,140.8485612,-9.00,3.00,4.59,0.00,0
156012,38.2612233,140.8485612,-9.08,4.02,1.76,0.00,0
156192,38.2612233,140.8485612,-9.46,5.59,2.72,0.00,0
156315,38.2612233,140.8485612,-8.31,4.90,2.28,0.00,0
156438,38.2612233,140.8485612,-7.75,4.59,2.73,0.00,0
156578,38.2612233,140.8485612,-7.95,4.33,2.12,0.00,0
156729,38.2612233,140.8485612,-8.90,4.77,2.98,0.00,0
156880,38.2612233,140.8485612,-8.08,4.84,1.87,0.00,0
157031,38.2612233,140.8485612,-8.37,4.50,2.64,0.00,0
157210,38.2612233,140.8485612,-7.83,4.61,2.60,0.00,0
157333,38.2612233,140.8485612,-7.49,4.33,2.96,0.00,0
157456,38.2612233,140.8485612,-7.97,4.61,3.56,0.00,0
157597,38.2612233,140.8485612,-7.91,5.19,3.52,0.00,0
157748,38.2612233,140.8485612,-7.52,4.27,3.92,0.00,0
157899,38.2612233,140.8485612,-7.85,4.56,3.73,0.00,0
158050,38.2612233,140.8485612,-7.79,4.63,3.83,0.00,0
158230,38.2612233,140.8485612,-7.72,4.36,3.50,0.00,0
158355,38.2612233,140.8485612,-8.08,4.44,3.69,0.00,0
158478,38.2612233,140.8485612,-7.58,4.52,3.67,0.00,0
158615,38.2612233,140.8485612,-7.72,4.27,3.50,0.00,0
158766,38.2612233,140.8485612,-7.79,4.48,3.62,0.00,0
158917,38.2612233,140.8485612,-7.74,4.48,3.48,0.00,0
159068,38.2612233,140.8485612,-8.06,4.44,3.50,0.00,0
159248,38.2612233,140.8485612,-7.98,4.67,3.56,0.00,0
159370,38.2612233,140.8485612,-7.95,4.65,3.90,0.00,0
159492,38.2612233,140.8485612,-7.58,4.31,3.77,0.00,0
159632,38.2612233,140.8485612,-7.83,4.10,2.85,0.00,0
159783,38.2612233,140.8485612,-7.54,4.52,4.69,0.00,0
159935,38.2612233,140.8485612,-6.43,4.69,5.97,0.00,0
160086,38.2612233,140.8485612,-5.93,3.25,6.68,0.00,0
160266,38.2612233,140.8485612,-5.44,4.11,8.12,0.00,0
160388,38.2612233,140.8485612,-7.26,4.52,10.02,0.00,0
160511,38.2612233,140.8485612,-6.57,5.46,8.41,0.00,0
160651,38.2612233,140.8485612,-5.19,3.67,6.26,0.00,0
160802,38.2612233,140.8485612,-0.53,1.28,6.49,0.00,0
160953,38.2612233,140.8485612,5.17,-0.68,7.72,0.00,0
161077,38.2612233,140.8485612,-1.78,2.47,11.36,0.00,0
161217,38.2612233,140.8485612,1.39,0.38,8.81,0.00,0
161396,38.2612233,140.8485612,1.11,-0.53,9.33,0.00,0
161519,38.2612233,140.8485612,1.24,-0.30,9.38,0.00,0
161670,38.2612233,140.8485612,1.68,-0.19,8.92,0.00,0
161821,38.2612233,140.8485612,0.91,1.18,11.38,0.00,0
161972,38.2612233,140.8485612,0.76,0.90,9.71,0.00,0
162094,38.2612233,140.8485612,1.36,1.13,10.03,0.00,0
162236,38.2612233,140.8485612,0.97,1.62,9.27,0.00,0
162417,38.2612233,140.8485612,-0.24,1.20,9.04,0.00,0
162540,38.2612233,140.8485612,-0.63,1.18,10.28,0.00,0
162689,38.2612233,140.8485612,1.47,-10.07,1.55,0.00,0
162840,38.2612233,140.8485612,0.00,2.26,11.28,0.00,0
162991,38.2612233,140.8485612,0.51,0.74,11.38,0.00,0
163113,38.2612233,140.8485612,0.05,0.65,10.17,0.00,0
163255,38.2612233,140.8485612,1.60,2.10,11.72,0.00,0
163435,38.2612233,140.8485612,2.14,0.91,10.55,0.00,0
163558,38.2612233,140.8485612,2.14,1.13,9.56,0.00,0
163708,38.2612233,140.8485612,1.34,0.22,9.67,0.00,0
163859,38.2612233,140.8485612,-1.43,1.01,11.97,0.00,0
164010,38.2612233,140.8485612,-2.05,4.65,9.04,0.00,0
164133,38.2612233,140.8485612,-0.45,3.44,7.75,0.00,0
164273,38.2612233,140.8485612,0.28,4.08,9.94,0.00,0
164452,38.2612233,140.8485612,0.03,4.23,8.56,0.00,0
164575,38.2612233,140.8485612,-0.55,4.61,8.87,0.00,0
164726,38.2612233,140.8485612,0.01,4.46,8.02,0.00,0
164877,38.2612233,140.8485612,0.32,4.65,8.46,0.00,0
165028,38.2612233,140.8485612,-0.17,5.19,9.13,0.00,0
165152,38.2612233,140.8485612,0.03,4.77,7.52,0.00,0
165291,38.2612233,140.8485612,-0.19,4.82,8.00,0.00,0
165471,38.2612233,140.8485612,-1.22,5.95,7.66,0.00,0
165594,38.2612233,140.8485612,-2.05,5.34,8.00,0.00,0
165744,38.2612233,140.8485612,-2.35,5.21,7.87,0.00,0
165895,38.2612233,140.8485612,-3.75,5.09,7.10,0.00,0
166046,38.2612233,140.8485612,-3.46,5.17,6.84,0.00,0
166168,38.2612233,140.8485612,-3.19,5.86,6.82,0.00,0
166309,38.2612233,140.8485612,-4.86,5.97,6.76,0.00,0
166489,38.2612233,140.8485612,-4.04,4.29,6.26,0.00,0
166614,38.2612233,140.8485612,-3.96,5.51,5.90,0.00,0
166762,38.2612233,140.8485612,-2.72,6.28,6.45,0.00,0
166913,38.2612233,140.8485612,-3.16,6.16,6.64,0.00,0
167064,38.2612233,140.8485612,-1.43,6.57,6.38,0.00,0
167186,38.2612233,140.8485612,-2.66,6.74,6.62,0.00,0
167327,38.2612233,140.8485612,-1.70,6.59,6.80,0.00,0
167507,38.2612233,140.8485612,-2.20,7.10,5.93,0.00,0
167630,38.2612233,140.8485612,-3.10,7.43,6.09,0.00,0
167780,38.2612233,140.8485612,-4.13,7.47,5.51,0.00,0
167931,38.2612233,140.8485612,-5.32,7.26,6.09,0.00,0
168082,38.2612233,140.8485612,-3.52,5.74,5.05,0.00,0
168204,38.2612233,140.8485612,-4.33,5.65,7.26,0.00,0
168346,38.2612233,140.8485612,-4.23,5.69,6.13,0.00,0
168526,38.2612233,140.8485612,-4.46,5.88,6.30,0.00,0
168649,38.2612233,140.8485612,-4.94,5.63,6.89,0.00,0
168799,38.2612233,140.8485612,-4.56,5.92,6.05,0.00,0
168950,38.2612233,140.8485612,-3.60,5.28,6.26,0.00,0
169072,38.2612233,140.8485612,-3.19,6.20,6.91,0.00,0
169213,38.2612233,140.8485612,-4.11,5.36,7.81,0.00,0
169364,38.2612233,140.8485612,-5.05,4.65,7.66,0.00,0
169544,38.2612233,140.8485612,-5.59,5.70,5.78,0.00,0
169666,38.2612233,140.8485612,-6.64,2.73,8.39,0.00,0
169817,38.2612233,140.8485612,-5.90,0.93,7.91,0.00,0
169968,38.2612233,140.8485612,-5.80,0.40,7.28,0.00,0
170090,38.2612233,140.8485612,-5.57,-0.44,8.64,0.00,0
170230,38.2612233,140.8485612,-5.46,-0.74,8.52,0.00,0
170381,38.2612233,140.8485612,-5.44,-0.15,8.75,0.00,0
170562,38.2612233,140.8485612,-5.30,-0.76,8.44,0.00,0
170686,38.2612233,140.8485612,-5.07,-0.57,10.09,0.00,0
170834,38.2612233,140.8485612,-4.77,0.34,9.13,0.00,0
170985,38.2612233,140.8485612,-4.02,-0.55,8.89,0.00,0
171107,38.2612233,140.8485612,-4.38,0.22,9.02,0.00,0
171248,38.2612233,140.8485612,-5.30,-0.42,8.87,0.00,0
171399,38.2612233,140.8485612,-5.36,0.19,9.02,0.00,0
171579,38.2612233,140.8485612,-5.17,0.63,7.91,0.00,0
171702,38.2612233,140.8485612,-5.59,0.70,9.98,0.00,0
171852,38.2612233,140.8485612,-5.57,0.05,7.81,0.00,0
172003,38.2612233,140.8485612,-6.30,0.03,7.91,0.00,0
172127,38.2612233,140.8485612,-5.28,0.53,8.04,0.00,0
172266,38.2612233,140.8485612,-6.43,0.68,8.96,0.00,0
172417,38.2612233,140.8485612,-5.95,0.11,8.52,0.00,0
172597,38.2612233,140.8485612,-5.61,0.09,8.62,0.00,0
172720,38.2612233,140.8485612,-6.91,-0.34,8.23,0.00,0
172870,38.2612233,140.8485612,-5.28,0.42,8.10,0.00,0
173021,38.2612233,140.8485612,-5.49,0.42,8.66,0.00,0
173143,38.2612233,140.8485612,-5.05,0.74,8.39,0.00,0
173285,38.2612233,140.8485612,-7.14,0.36,7.75,0.00,0
173436,38.2612233,140.8485612,-5.01,-0.03,8.46,0.00,0
173617,38.2612233,140.8485612,-6.80,0.67,8.31,0.00,0
173740,38.2612233,140.8485612,-4.61,2.28,8.39,0.00,0
173889,38.2612233,140.8485612,-5.80,0.45,8.14,0.00,0
174040,38.2612233,140.8485612,-5.93,0.95,8.35,0.00,0
174162,38.2612233,140.8485612,-6.80,1.11,8.44,0.00,0
174303,38.2612233,140.8485612,-5.84,0.63,8.67,0.00,0
174454,38.2612233,140.8485612,-5.21,-1.78,8.37,0.00,0
174635,38.2612233,140.8485612,-6.51,3.02,6.41,0.00,0
174758,38.2612233,140.8485612,-5.99,1.43,4.50,0.00,0
174907,38.2612233,140.8485612,-11.24,5.09,1.97,0.00,0
175058,38.2612233,140.8485612,-9.65,4.44,2.06,0.00,0
175180,38.2612233,140.8485612,-9.29,5.49,0.63,0.00,0
175322,38.2612233,140.8485612,-10.49,5.86,-0.74,0.00,0
175473,38.2612233,140.8485612,-9.10,5.24,1.43,0.00,0
175653,38.2612233,140.8485612,-9.40,3.58,2.03,0.00,0
175776,38.2612233,140.8485612,-8.67,3.16,2.37,0.00,0
175926,38.2612233,140.8485612,-7.37,1.70,4.23,0.00,0
176077,38.2612233,140.8485612,-5.95,1.36,5.51,0.00,0
176201,38.2612233,140.8485612,-8.21,1.11,5.99,0.00,0
176341,38.2612233,140.8485612,-4.80,-0.09,9.04,0.00,0
176492,38.2612233,140.8485612,-9.48,2.72,6.45,0.00,0
176672,38.2612233,140.8485612,-7.03,0.34,8.16,0.00,0
176795,38.2612233,140.8485612,-7.68,1.55,7.20,0.00,0
176945,38.2612233,140.8485612,-7.93,1.03,6.68,0.00,0
177068,38.2612233,140.8485612,-8.48,0.36,6.20,0.00,0
177208,38.2612233,140.8485612,-8.12,0.84,5.13,0.00,0
177359,38.2612233,140.8485612,-7.97,0.63,6.30,0.00,0
177510,38.2612233,140.8485612,-7.72,0.82,6.57,0.00,0
177689,38.2612233,140.8485612,-8.85,0.34,6.43,0.00,0
177812,38.2612233,140.8485612,-7.62,0.84,6.05,0.00,0
177963,38.2612233,140.8485612,-7.20,0.84,3.94,0.00,0
178086,38.2612233,140.8485612,-8.02,0.78,6.09,0.00,0
178227,38.2612233,140.8485612,-8.21,1.13,5.30,0.00,0
178378,38.2612233,140.8485612,-7.85,-0.07,5.99,0.00,0
178529,38.2612233,140.8485612,-8.67,0.74,5.86,0.00,0
178709,38.2612233,140.8485612,-7.97,0.42,5.61,0.00,0
178832,38.2612233,140.8485612,-8.35,0.72,5.86,0.00,0
178982,38.2612233,140.8485612,-8.04,0.53,6.34,0.00,0
179104,38.2612233,140.8485612,-8.25,0.32,6.13,0.00,0
179246,38.2612233,140.8485612,-7.68,0.28,6.07,0.00,0
179397,38.2612233,140.8485612,-9.13,0.05,6.18,0.00,0
179548,38.2612233,140.8485612,-8.46,0.13,5.67,0.00,0
179728,38.2612233,140.8485612,-8.33,0.17,5.90,0.00,0
179850,38.2612233,140.8485612,-8.48,0.13,6.16,0.00,0
180001,38.2612233,140.8485612,-7.79,0.15,5.97,0.00,0
180123,38.2612233,140.8485612,-8.48,0.30,6.16,0.00,0
180265,38.2612233,140.8485612,-8.33,-0.15,6.07,0.00,0
180416,38.2612233,140.8485612,-7.68,0.63,6.38,0.00,0
180567,38.2612233,140.8485612,-8.39,0.42,6.05,0.00,0
180747,38.2612233,140.8485612,-9.17,0.03,5.97,0.00,0
180870,38.2612233,140.8485612,-8.89,-0.36,6.24,0.00,0
181020,38.2612233,140.8485612,-8.21,0.21,6.05,0.00,0
181143,38.2612233,140.8485612,-8.00,-0.13,6.34,0.00,0
181284,38.2612233,140.8485612,-8.52,-0.47,6.05,0.00,0
181435,38.2612233,140.8485612,-8.37,0.01,5.82,0.00,0
181586,38.2612233,140.8485612,-8.23,-0.34,5.99,0.00,0
181776,38.2612233,140.8485612,-8.06,-0.34,6.38,0.00,0
181899,38.2612233,140.8485612,-8.04,0.00,6.09,0.00,0
182039,38.2612233,140.8485612,-7.98,0.00,5.97,0.00,0
182161,38.2612233,140.8485612,-8.50,0.00,5.61,0.00,0
182303,38.2612233,140.8485612,-8.14,-0.03,6.09,0.00,0
182454,38.2612233,140.8485612,-8.41,0.07,6.38,0.00,0
182605,38.2612233,140.8485612,-8.20,-0.03,6.30,0.00,0
182786,38.2612233,140.8485612,-8.96,0.15,5.63,0.00,0
182909,38.2612233,140.8485612,-8.04,-0.05,5.93,0.00,0
183058,38.2612233,140.8485612,-7.52,0.63,6.39,0.00,0
183180,38.2612233,140.8485612,-8.20,-0.30,6.13,0.00,0
183322,38.2612233,140.8485612,-7.87,-0.44,6.51,0.00,0
183473,38.2612233,140.8485612,-9.02,-0.15,5.55,0.00,0
183624,38.2612233,140.8485612,-8.14,-0.57,5.90,0.00,0
183805,38.2612233,140.8485612,-8.92,-0.45,5.78,0.00,0
183928,38.2612233,140.8485612,-8.04,0.21,5.99,0.00,0
184077,38.2612233,140.8485612,-9.40,-0.61,5.97,0.00,0
184199,38.2612233,140.8485612,-8.94,-0.11,5.59,0.00,0
184341,38.2612233,140.8485612,-7.20,-0.03,5.59,0.00,0
184492,38.2612233,140.8485612,-6.99,-0.01,6.38,0.00,0
184643,38.2612233,140.8485612,-10.28,-0.42,5.07,0.00,0
184825,38.2612233,140.8485612,-8.67,-0.49,5.57,0.00,0
184948,38.2612233,140.8485612,-7.10,0.17,6.11,0.00,0
185070,38.2612233,140.8485612,-9.75,-0.57,5.63,0.00,0
185208,38.2612233,140.8485612,-9.44,0.84,4.02,0.00,0
185359,38.2612233,140.8485612,-9.36,-0.34,5.00,0.00,0
185510,38.2612233,140.8485612,-9.69,0.24,3.73,0.00,0
185661,38.2612233,140.8485612,-9.69,0.11,3.50,0.00,0
185843,38.2612233,140.8485612,-10.11,0.57,2.75,0.00,0
185966,38.2612233,140.8485612,-10.13,-0.03,3.12,0.00,0
186089,38.2612233,140.8485612,-9.56,0.19,3.04,0.00,0
186227,38.2612233,140.8485612,-9.10,-1.01,4.48,0.00,0
186378,38.2612233,140.8485612,-10.19,0.78,3.37,0.00,0
186529,38.2612233,140.8485612,-8.54,0.00,3.60,0.00,0
186680,38.2612233,140.8485612,-10.15,0.15,2.93,0.00,0
186861,38.2612233,140.8485612,-10.48,0.95,2.83,0.00,0
186984,38.2612233,140.8485612,-9.23,0.65,4.27,0.00,0
187108,38.2612233,140.8485612,-8.96,0.80,5.19,0.00,0
187245,38.2612233,140.8485612,-6.97,-0.53,5.36,0.00,0
187396,38.2612233,140.8485612,-10.78,0.88,5.40,0.00,0
187547,38.2612233,140.8485612,-7.49,-1.14,6.16,0.00,0
187698,38.2612233,140.8485612,-8.60,-1.37,6.59,0.00,0
187879,38.2612233,140.8485612,-8.89,-1.30,5.11,0.00,0
188002,38.2612233,140.8485612,-8.79,-1.43,5.19,0.00,0
188125,38.2612233,140.8485612,-8.83,-1.41,5.11,0.00,0
188264,38.2612233,140.8485612,-8.25,-1.41,4.86,0.00,0
188415,38.2612233,140.8485612,-9.10,-1.49,5.34,0.00,0
188566,38.2612233,140.8485612,-8.87,-1.66,5.17,0.00,0
188717,38.2612233,140.8485612,-8.64,-1.34,5.05,0.00,0
188898,38.2612233,140.8485612,-8.12,-1.30,5.57,0.00,0
189021,38.2612233,140.8485612,-8.73,-1.34,5.59,0.00,0
189144,38.2612233,140.8485612,-8.50,-1.53,5.49,0.00,0
189283,38.2612233,140.8485612,-8.56,-1.47,5.21,0.00,0
189434,38.2612233,140.8485612,-8.52,-1.47,5.82,0.00,0
189585,38.2612233,140.8485612,-8.75,-1.74,5.44,0.00,0
189736,38.2612233,140.8485612,-8.73,-0.99,5.30,0.00,0
189919,38.2612233,140.8485612,-8.66,-1.62,5.38,0.00,0
190042,38.2612233,140.8485612,-8.43,-1.51,5.59,0.00,0
190165,38.2612233,140.8485612,-8.69,-1.57,5.55,0.00,0
190302,38.2612233,140.8485612,-8.16,-1.82,5.53,0.00,0
190453,38.2612233,140.8485612,-8.87,-1.39,5.76,0.00,0
190604,38.2612233,140.8485612,-7.91,-1.68,6.03,0.00,0
190755,38.2612233,140.8485612,-8.73,-1.85,5.51,0.00,0
190936,38.2612233,140.8485612,-8.14,-1.32,5.17,0.00,0
191059,38.2612233,140.8485612,-8.71,-1.57,5.17,0.00,0
191183,38.2612233,140.8485612,-8.31,-2.10,5.28,0.00,0
191321,38.2612233,140.8485612,-8.43,-1.57,4.63,0.00,0
191472,38.2612233,140.8485612,-9.79,-1.99,4.15,0.00,0
191623,38.2612233,140.8485612,-9.13,-1.51,4.33,0.00,0
191774,38.2612233,140.8485612,-9.29,-1.80,4.17,0.00,0
191955,38.2612233,140.8485612,-9.42,-1.53,4.19,0.00,0
192078,38.2612233,140.8485612,-9.02,-1.47,4.29,0.00,0
192201,38.2612233,140.8485612,-8.52,-1.95,4.44,0.00,0
192340,38.2612233,140.8485612,-9.40,-1.93,3.75,0.00,0
192491,38.2612233,140.8485612,-9.77,-2.08,3.92,0.00,0
192642,38.2612233,140.8485612,-9.77,-1.51,3.37,0.00,0
192793,38.2612233,140.8485612,-9.59,-0.93,4.33,0.00,0
192974,38.2612233,140.8485612,-8.94,-2.31,2.60,0.00,0
193097,38.2612233,140.8485612,-9.86,-1.41,2.16,0.00,0
193220,38.2612233,140.8485612,-9.00,-2.49,-0.55,0.00,0
193358,38.2612233,140.8485612,-9.15,-0.51,-1.20,0.00,0
193509,38.2612233,140.8485612,-9.61,-0.70,-3.75,0.00,0
193660,38.2612233,140.8485612,-9.15,-0.93,-3.42,0.00,0
193811,38.2612233,140.8485612,-8.79,-0.80,-3.85,0.00,0
193995,38.2612233,140.8485612,-9.00,-0.17,-4.29,0.00,0
194118,38.2612233,140.8485612,-9.00,-0.63,-4.23,0.00,0
194241,38.2612233,140.8485612,-7.77,-1.49,-3.37,0.00,0
194376,38.2612233,140.8485612,-9.08,-0.67,-2.66,0.00,0
194527,38.2612233,140.8485612,-9.29,-0.88,-2.91,0.00,0
194678,38.2612233,140.8485612,-9.13,-0.82,-3.62,0.00,0
194829,38.2612233,140.8485612,-9.23,-1.09,-4.02,0.00,0
195011,38.2612233,140.8485612,-9.27,-1.09,-3.90,0.00,0
195134,38.2612233,140.8485612,-8.94,-1.11,-3.75,0.00,0
195258,38.2612233,140.8485612,-9.21,-1.07,-3.85,0.00,0
195395,38.2612233,140.8485612,-9.79,0.49,-3.90,0.00,0
195546,38.2612233,140.8485612,-8.41,-0.59,-3.35,0.00,0
195697,38.2612233,140.8485612,-10.05,-1.45,-3.94,0.00,0
195848,38.2612233,140.8485612,-9.88,-1.43,-3.21,0.00,0
196030,38.2612233,140.8485612,-9.12,-0.65,-4.59,0.00,0
196153,38.2612233,140.8485612,-9.46,-1.30,-3.71,0.00,0
196276,38.2612233,140.8485612,-9.21,-1.26,-3.44,0.00,0
196414,38.2612233,140.8485612,-8.39,-0.80,-3.52,0.00,0
196565,38.2612233,140.8485612,-9.50,-1.01,-3.37,0.00,0
196716,38.2612233,140.8485612,-9.23,-0.84,-3.18,0.00,0
196867,38.2612233,140.8485612,-9.12,-1.18,-3.06,0.00,0
197049,38.2612233,140.8485612,-9.56,-1.43,-3.71,0.00,0
197172,38.2612233,140.8485612,-8.12,-0.88,-5.15,0.00,0
197295,38.2612233,140.8485612,-6.76,-1.62,-6.95,0.00,0
197433,38.2612233,140.8485612,-5.90,-0.90,-6.51,0.00,0
197584,38.2612233,140.8485612,-3.39,-1.24,-10.84,0.00,0
197735,38.2612233,140.8485612,-1.41,-1.22,-9.58,0.00,0
197886,38.2612233,140.8485612,-2.35,-0.78,-9.23,0.00,0
198068,38.2612233,140.8485612,-1.66,-0.42,-11.03,0.00,0
198191,38.2612233,140.8485612,-2.52,-0.93,-10.02,0.00,0
198314,38.2612233,140.8485612,-2.16,-0.36,-9.19,0.00,0
198451,38.2612233,140.8485612,-1.66,-1.30,-9.31,0.00,0
198602,38.2612233,140.8485612,-1.91,-0.80,-9.31,0.00,0
198753,38.2612233,140.8485612,-2.45,-0.68,-10.25,0.00,0
198904,38.2612233,140.8485612,-1.83,-0.90,-8.62,0.00,0
199086,38.2612233,140.8485612,-2.64,-1.32,-9.19,0.00,0
199210,38.2612233,140.8485612,-1.93,-1.09,-9.08,0.00,0
199333,38.2612233,140.8485612,-2.06,-0.72,-9.12,0.00,0
199470,38.2612233,140.8485612,-3.21,-0.51,-8.79,0.00,0
199621,38.2612233,140.8485612,-1.37,-1.13,-9.77,0.00,0
199772,38.2612233,140.8485612,-1.85,-1.59,-9.13,0.00,0
199923,38.2612233,140.8485612,-2.95,-0.97,-9.52,0.00,0
200105,38.2612233,140.8485612,-2.20,-2.01,-10.15,0.00,0
200228,38.2612233,140.8485612,-3.29,-0.93,-11.03,0.00,0
200351,38.2612233,140.8485612,-3.04,-0.22,-9.44,0.00,0
200489,38.2612233,140.8485612,-2.60,-0.59,-8.69,0.00,0
200640,38.2612233,140.8485612,-3.58,-0.76,-8.89,0.00,0
200791,38.2612233,140.8485612,-2.98,0.34,-8.64,0.00,0
200942,38.2612233,140.8485612,-3.67,-0.90,-9.67,0.00,0
201124,38.2612233,140.8485612,-3.12,-0.65,-9.36,0.00,0
201247,38.2612233,140.8485612,-3.60,-0.47,-8.77,0.00,0
201369,38.2612233,140.8485612,-2.87,-0.93,-9.15,0.00,0
201508,38.2612233,140.8485612,-3.08,-0.65,-8.73,0.00,0
201659,38.2612233,140.8485612,-2.77,-0.91,-9.40,0.00,0
201810,38.2612233,140.8485612,-2.85,-0.49,-9.42,0.00,0
201961,38.2612233,140.8485612,-2.72,-0.91,-9.61,0.00,0
202143,38.2612233,140.8485612,-2.54,-1.32,-8.92,0.00,0
202266,38.2612233,140.8485612,-3.04,-0.80,-8.85,0.00,0
202389,38.2612233,140.8485612,-2.58,-0.59,-8.81,0.00,0
202527,38.2612233,140.8485612,-2.68,-0.90,-10.07,0.00,0
202678,38.2612233,140.8485612,-2.83,-1.13,-9.29,0.00,0
202829,38.2612233,140.8485612,-3.06,0.07,-8.90,0.00,0
202980,38.2612233,140.8485612,-1.32,-1.62,-9.29,0.00,0
203162,38.2612233,140.8485612,-0.65,-0.26,-9.58,0.00,0
203286,38.2612233,140.8485612,1.36,0.09,-10.03,0.00,0
203409,38.2612233,140.8485612,3.98,-0.57,-9.52,0.00,0
203547,38.2612233,140.8485612,5.26,-0.11,-9.02,0.00,0
203698,38.2612233,140.8485612,7.77,-0.80,-7.66,0.00,0
203849,38.2612233,140.8485612,7.10,0.68,-6.89,0.00,0
204000,38.2612233,140.8485612,6.70,0.24,-6.80,0.00,0
204180,38.2612233,140.8485612,6.24,0.97,-6.59,0.00,0
204303,38.2612233,140.8485612,6.38,0.99,-7.03,0.00,0
204426,38.2612233,140.8485612,6.80,1.16,-7.35,0.00,0
204567,38.2612233,140.8485612,6.57,0.90,-6.93,0.00,0
204718,38.2612233,140.8485612,7.20,0.53,-6.91,0.00,0
204869,38.2612233,140.8485612,7.31,0.95,-6.36,0.00,0
205020,38.2612233,140.8485612,7.47,0.67,-6.53,0.00,0
205200,38.2612233,140.8485612,7.47,0.32,-6.15,0.00,0
205323,38.2612233,140.8485612,7.60,0.61,-6.24,0.00,0
205473,38.2612233,140.8485612,8.14,0.61,-5.74,0.00,0
205624,38.2612233,140.8485612,7.52,0.88,-5.63,0.00,0
205775,38.2612233,140.8485612,8.00,1.26,-6.62,0.00,0
205926,38.2612233,140.8485612,7.62,0.90,-5.55,0.00,0
206077,38.2612233,140.8485612,7.91,0.19,-6.26,0.00,0
206257,38.2612233,140.8485612,7.58,0.68,-4.48,0.00,0
206380,38.2612233,140.8485612,8.06,0.47,-5.76,0.00,0
206530,38.2612233,140.8485612,7.87,0.32,-5.92,0.00,0
206681,38.2612233,140.8485612,8.14,0.53,-5.42,0.00,0
206832,38.2612233,140.8485612,7.10,-0.01,-6.26,0.00,0
206983,38.2612233,140.8485612,7.98,1.01,-7.75,0.00,0
207135,38.2612233,140.8485612,7.35,0.40,-6.70,0.00,0
207315,38.2612233,140.8485612,5.15,1.05,-5.09,0.00,0
207439,38.2612233,140.8485612,7.16,0.49,-4.67,0.00,0
207588,38.2612233,140.8485612,9.88,-0.17,-2.81,0.00,0
207739,38.2612233,140.8485612,9.48,-0.95,-1.57,0.00,0
207890,38.2612233,140.8485612,11.07,-0.42,-1.26,0.00,0
208041,38.2612233,140.8485612,10.07,-1.03,1.49,0.00,0
208192,38.2612233,140.8485612,10.02,-0.72,0.88,0.00,0
208373,38.2612233,140.8485612,10.02,-2.05,1.83,0.00,0
208496,38.2612233,140.8485612,9.35,-0.15,0.28,0.00,0
208646,38.2612233,140.8485612,10.07,-1.32,1.80,0.00,0
208797,38.2612233,140.8485612,9.29,-1.26,1.34,0.00,0
208948,38.2612233,140.8485612,9.12,-0.84,2.39,0.00,0
209070,38.2612233,140.8485612,9.08,-1.09,3.37,0.00,0
209211,38.2612233,140.8485612,5.32,1.32,1.36,0.00,0
209390,38.2612233,140.8485612,9.94,-0.70,3.19,0.00,0
209519,38.2612233,140.8485612,9.71,-0.74,2.29,0.00,0
209664,38.2612233,140.8485612,9.67,-0.67,2.05,0.00,0
209815,38.2612233,140.8485612,9.69,-0.21,1.34,0.00,0
209966,38.2612233,140.8485612,9.69,-0.91,1.41,0.00,0
210088,38.2612233,140.8485612,9.46,-0.47,1.20,0.00,0
210229,38.2612233,140.8485612,9.65,-0.42,0.55,0.00,0
210409,38.2612233,140.8485612,9.59,-1.01,-0.90,0.00,0
210532,38.2612233,140.8485612,9.50,-0.19,0.67,0.00,0
210682,38.2612233,140.8485612,9.84,-0.19,1.49,0.00,0
210833,38.2612233,140.8485612,9.88,-0.15,1.47,0.00,0
210984,38.2612233,140.8485612,9.98,-0.49,1.62,0.00,0
211106,38.2612233,140.8485612,9.44,-0.67,1.70,0.00,0
211247,38.2612233,140.8485612,8.79,-0.61,2.87,0.00,0
211427,38.2612233,140.8485612,7.26,-0.82,7.14,0.00,0
211552,38.2612233,140.8485612,6.70,-1.05,7.37,0.00,0
211700,38.2612233,140.8485612,5.86,-1.34,7.41,0.00,0
211851,38.2612233,140.8485612,5.46,-0.90,7.62,0.00,0
212002,38.2612233,140.8485612,6.24,-0.65,7.39,0.00,0
212125,38.2612233,140.8485612,6.57,-0.68,7.75,0.00,0
212267,38.2612233,140.8485612,5.74,-0.80,8.21,0.00,0
212454,38.2612233,140.8485612,3.96,-0.88,9.10,0.00,0
212576,38.2612233,140.8485612,3.27,-0.57,9.92,0.00,0
212720,38.2612233,140.8485612,2.73,-0.57,9.21,0.00,0
212871,38.2612233,140.8485612,-0.40,-1.30,10.55,0.00,0
213022,38.2612233,140.8485612,-2.08,-2.70,10.00,0.00,0
213144,38.2612233,140.8485612,-1.78,-1.05,9.98,0.00,0
213286,38.2612233,140.8485612,-2.49,-0.63,9.63,0.00,0
213467,38.2612233,140.8485612,-2.43,-0.61,10.07,0.00,0
213590,38.2612233,140.8485612,-2.41,-0.28,9.56,0.00,0
213739,38.2612233,140.8485612,-3.10,-0.63,9.81,0.00,0
213890,38.2612233,140.8485612,-3.23,-0.82,10.32,0.00,0
214041,38.2612233,140.8485612,-3.12,-0.82,9.65,0.00,0
214163,38.2612233,140.8485612,-2.98,-0.78,9.46,0.00,0
214306,38.2612233,140.8485612,-2.95,-0.99,9.52,0.00,0
214487,38.2612233,140.8485612,-2.68,-0.63,9.63,0.00,0
214609,38.2612233,140.8485612,-3.02,-0.57,9.31,0.00,0
214759,38.2612233,140.8485612,-2.50,-0.91,9.31,0.00,0
214910,38.2612233,140.8485612,-2.56,-1.11,11.09,0.00,0
215061,38.2612233,140.8485612,-3.29,-0.67,9.06,0.00,0
215183,38.2612233,140.8485612,-3.10,-0.24,9.38,0.00,0
215326,38.2612233,140.8485612,-1.01,-0.88,9.00,0.00,0
215507,38.2612233,140.8485612,-2.60,-0.53,10.28,0.00,0
215631,38.2612233,140.8485612,-3.39,0.67,8.66,0.00,0
215779,38.2612233,140.8485612,-6.84,-2.10,8.10,0.00,0
215930,38.2612233,140.8485612,-9.73,-0.05,10.59,0.00,0
216081,38.2612233,140.8485612,-7.39,0.09,11.17,0.00,0
216203,38.2612233,140.8485612,-6.47,0.55,8.31,0.00,0
216346,38.2612233,140.8485612,-4.15,-0.09,8.00,0.00,0
216527,38.2612233,140.8485612,-2.62,-2.49,8.98,0.00,0
216650,38.2612233,140.8485612,0.76,-5.23,8.10,0.00,0
216799,38.2612233,140.8485612,1.36,-7.39,6.38,0.00,0
216950,38.2612233,140.8485612,1.20,-8.46,6.32,0.00,0
217074,38.2612233,140.8485612,1.34,-10.36,8.79,0.00,0
217213,38.2612233,140.8485612,1.76,-10.69,8.52,0.00,0
217364,38.2612233,140.8485612,0.30,-7.52,7.54,0.00,0
217544,38.2612233,140.8485612,0.30,-7.18,4.29,0.00,0
217667,38.2612233,140.8485612,1.32,-10.38,7.18,0.00,0
217817,38.2612233,140.8485612,2.06,-9.06,4.92,0.00,0
217968,38.2612233,140.8485612,1.07,-11.49,3.71,0.00,0
218090,38.2612233,140.8485612,1.95,-9.56,3.23,0.00,0
218231,38.2612233,140.8485612,1.20,-11.11,6.13,0.00,0
218382,38.2612233,140.8485612,0.65,-8.58,8.71,0.00,0
218562,38.2612233,140.8485612,-0.21,-10.07,5.38,0.00,0
218685,38.2612233,140.8485612,-1.18,-9.75,7.01,0.00,0
218835,38.2612233,140.8485612,3.44,-7.45,5.57,0.00,0
218986,38.2612233,140.8485612,0.11,-8.16,1.83,0.00,0
219108,38.2612233,140.8485612,2.08,-8.04,6.64,0.00,0
219248,38.2612233,140.8485612,0.95,-11.13,2.93,0.00,0
219399,38.2612233,140.8485612,-1.43,-9.65,2.95,0.00,0
219580,38.2612233,140.8485612,1.18,-9.81,3.42,0.00,0
219704,38.2612233,140.8485612,2.20,-9.54,3.71,0.00,0
219852,38.2612233,140.8485612,2.03,-9.27,3.16,0.00,0
220003,38.2612233,140.8485612,2.75,-9.65,4.63,0.00,0
220125,38.2612233,140.8485612,3.27,-10.21,5.46,0.00,0
220267,38.2612233,140.8485612,3.75,-8.12,5.95,0.00,0
220418,38.2612233,140.8485612,1.83,-8.64,3.08,0.00,0
220597,38.2612233,140.8485612,0.65,-8.41,4.90,0.00,0
220720,38.2612233,140.8485612,1.82,-9.88,5.34,0.00,0
220871,38.2612233,140.8485612,0.76,-10.48,5.67,0.00,0
221022,38.2612233,140.8485612,0.93,-10.13,4.11,0.00,0
221146,38.2612233,140.8485612,0.01,-10.17,4.00,0.00,0
221287,38.2612233,140.8485612,0.03,-9.27,4.59,0.00,0
221438,38.2612233,140.8485612,0.84,-8.87,3.25,0.00,0
221618,38.2612233,140.8485612,1.32,-11.01,-1.20,0.00,0
221741,38.2612233,140.8485612,0.86,-8.98,-3.52,0.00,0
221891,38.2612233,140.8485612,1.83,-10.38,13.77,0.00,0
222042,38.2612233,140.8485612,-0.17,-10.59,-0.90,0.00,0
222164,38.2612233,140.8485612,-1.13,-9.73,1.07,0.00,0
222307,38.2612233,140.8485612,-11.11,-6.89,3.75,0.00,0
222458,38.2612233,140.8485612,-8.83,-3.23,-1.99,0.00,0
222640,38.2612233,140.8485612,-7.08,-7.56,-0.65,0.00,0
222763,38.2612233,140.8485612,-7.18,-7.51,-0.74,0.00,0
222911,38.2612233,140.8485612,-7.30,-8.23,-1.95,0.00,0
223062,38.2612233,140.8485612,-5.80,-8.16,-1.91,0.00,0
223184,38.2612233,140.8485612,-6.26,-9.82,2.28,0.00,0
223327,38.2612233,140.8485612,-4.77,-7.72,-2.45,0.00,0
223478,38.2612233,140.8485612,-3.75,-9.58,-1.55,0.00,0
223660,38.2612233,140.8485612,1.26,-9.82,-2.54,0.00,0
223785,38.2612233,140.8485612,-0.42,-10.51,-0.61,0.00,0
223931,38.2612233,140.8485612,-0.95,-13.31,-0.13,0.00,0
224082,38.2612233,140.8485612,-0.70,-12.05,-0.80,0.00,0
224204,38.2612233,140.8485612,0.07,-6.82,4.94,0.00,0
224347,38.2612233,140.8485612,-4.48,-7.01,3.16,0.00,0
224498,38.2612233,140.8485612,-7.28,-6.22,4.71,0.00,0
224679,38.2612233,140.8485612,-7.66,-7.05,5.17,0.00,0
224802,38.2612233,140.8485612,-7.30,-6.16,5.28,0.00,0
224951,38.2612233,140.8485612,-6.43,-4.90,5.63,0.00,0
225073,38.2612233,140.8485612,-11.97,-1.83,4.27,0.00,0
225215,38.2612233,140.8485612,-8.31,-2.43,5.38,0.00,0
225366,38.2612233,140.8485612,-8.37,-1.59,5.97,0.00,0
225517,38.2612233,140.8485612,-9.27,-1.55,3.65,0.00,0
225698,38.2612233,140.8485612,-10.30,-2.77,1.70,0.00,0
225821,38.2612233,140.8485612,-10.00,-2.16,2.66,0.00,0
225970,38.2612233,140.8485612,-9.75,-2.52,1.95,0.00,0
226092,38.2612233,140.8485612,-10.53,-2.60,2.72,0.00,0
226233,38.2612233,140.8485612,-8.18,-5.01,1.59,0.00,0
226384,38.2612233,140.8485612,-9.86,-0.45,4.29,0.00,0
226535,38.2612233,140.8485612,-6.68,-4.46,2.33,0.00,0
226716,38.2612233,140.8485612,-9.75,-1.03,3.41,0.00,0
226838,38.2612233,140.8485612,-10.07,-2.39,2.62,0.00,0
226988,38.2612233,140.8485612,-10.17,-2.01,3.81,0.00,0
227110,38.2612233,140.8485612,-9.50,-2.58,3.35,0.00,0
227251,38.2612233,140.8485612,-9.65,-2.75,3.60,0.00,0
227402,38.2612233,140.8485612,-9.10,-3.33,3.10,0.00,0
227553,38.2612233,140.8485612,-8.67,-4.08,3.44,0.00,0
227734,38.2612233,140.8485612,-8.83,-7.37,2.79,0.00,0
227858,38.2612233,140.8485612,-6.39,-7.91,1.13,0.00,0
228007,38.2612233,140.8485612,-7.18,-8.08,0.91,0.00,0
228129,38.2612233,140.8485612,-6.53,-7.66,0.99,0.00,0
228270,38.2612233,140.8485612,-7.58,-7.75,1.34,0.00,0
228421,38.2612233,140.8485612,-7.28,-8.04,1.28,0.00,0
228572,38.2612233,140.8485612,-7.05,-7.24,1.22,0.00,0
228753,38.2612233,140.8485612,-6.93,-7.85,0.91,0.00,0
228876,38.2612233,140.8485612,-7.56,-7.58,1.22,0.00,0
229027,38.2612233,140.8485612,-7.56,-6.91,1.28,0.00,0
229151,38.2612233,140.8485612,-6.84,-7.95,1.37,0.00,0
229290,38.2612233,140.8485612,-6.74,-8.29,1.18,0.00,0
229441,38.2612233,140.8485612,-7.10,-7.20,1.49,0.00,0
229592,38.2612233,140.8485612,-7.75,-6.80,2.45,0.00,0
229773,38.2612233,140.8485612,-5.92,-7.43,1.72,0.00,0
229896,38.2612233,140.8485612,-7.39,-7.68,1.36,0.00,0
230019,38.2612233,140.8485612,-7.60,-6.89,2.14,0.00,0
230147,38.2612233,140.8485612,-7.75,-6.57,2.31,0.00,0
230298,38.2612233,140.8485612,-7.31,-7.10,1.93,0.00,0
230449,38.2612233,140.8485612,-7.47,-6.80,1.91,0.00,0
230600,38.2612233,140.8485612,-8.00,-6.61,3.64,0.00,0
230781,38.2612233,140.8485612,-7.98,-7.20,3.42,0.00,0
230904,38.2612233,140.8485612,-7.54,-6.87,2.60,0.00,0
231053,38.2612233,140.8485612,-7.85,-8.64,1.59,0.00,0
231204,38.2612233,140.8485612,-6.95,-6.59,2.66,0.00,0
231356,38.2612233,140.8485612,-6.38,-8.43,2.08,0.00,0
231507,38.2612233,140.8485612,-6.76,-6.66,5.42,0.00,0
231658,38.2612233,140.8485612,-4.86,-6.57,5.32,0.00,0
231839,38.2612233,140.8485612,-4.48,-7.60,5.74,0.00,0
231963,38.2612233,140.8485612,-2.77,-8.81,5.13,0.00,0
232111,38.2612233,140.8485612,-2.54,-7.07,8.90,0.00,0
232262,38.2612233,140.8485612,-1.32,-8.44,5.49,0.00,0
232413,38.2612233,140.8485612,-0.45,-8.87,8.54,0.00,0
232564,38.2612233,140.8485612,-1.16,-7.68,7.01,0.00,0
232715,38.2612233,140.8485612,-0.67,-9.63,2.83,0.00,0
232896,38.2612233,140.8485612,-0.57,-8.66,4.15,0.00,0
233019,38.2612233,140.8485612,0.86,-8.89,4.75,0.00,0
233168,38.2612233,140.8485612,0.78,-9.08,5.65,0.00,0
233319,38.2612233,140.8485612,2.85,-9.21,4.29,0.00,0
233470,38.2612233,140.8485612,4.04,-8.96,3.56,0.00,0
233621,38.2612233,140.8485612,4.42,-8.77,3.54,0.00,0
233772,38.2612233,140.8485612,4.69,-8.50,3.41,0.00,0
233952,38.2612233,140.8485612,3.46,-9.69,4.61,0.00,0
234075,38.2612233,140.8485612,2.05,-9.02,3.21,0.00,0
234197,38.2612233,140.8485612,-2.50,-9.54,4.67,0.00,0
234340,38.2612233,140.8485612,-1.97,-8.90,2.22,0.00,0
234491,38.2612233,140.8485612,-2.77,-9.81,1.49,0.00,0
234642,38.2612233,140.8485612,-5.00,-9.50,2.52,0.00,0
234793,38.2612233,140.8485612,-5.24,-9.61,3.16,0.00,0
234974,38.2612233,140.8485612,-4.50,-8.92,1.51,0.00,0
235097,38.2612233,140.8485612,-4.79,-9.54,1.18,0.00,0
235220,38.2612233,140.8485612,-5.07,-9.33,0.49,0.00,0
235358,38.2612233,140.8485612,-5.36,-9.36,0.36,0.00,0
235509,38.2612233,140.8485612,-5.36,-8.83,0.80,0.00,0
235660,38.2612233,140.8485612,-5.76,-8.98,0.70,0.00,0
235811,38.2612233,140.8485612,-6.59,-9.25,0.70,0.00,0
235992,38.2612233,140.8485612,-5.01,-8.73,0.99,0.00,0
236116,38.2612233,140.8485612,-5.72,-9.08,0.68,0.00,0
236238,38.2612233,140.8485612,-6.26,-9.25,0.70,0.00,0
236377,38.2612233,140.8485612,-5.78,-9.33,0.05,0.00,0
236528,38.2612233,140.8485612,-5.69,-8.92,0.07,0.00,0
236679,38.2612233,140.8485612,-5.99,-9.17,0.28,0.00,0
236830,38.2612233,140.8485612,-5.40,-8.90,-0.47,0.00,0
237012,38.2612233,140.8485612,-5.34,-9.06,0.24,0.00,0
237134,38.2612233,140.8485612,-5.19,-9.21,-0.34,0.00,0
237257,38.2612233,140.8485612,-5.86,-9.13,0.09,0.00,0
237396,38.2612233,140.8485612,-5.76,-8.96,-0.17,0.00,0
237547,38.2612233,140.8485612,-6.09,-8.44,-0.42,0.00,0
237698,38.2612233,140.8485612,-4.56,-9.12,0.49,0.00,0
237849,38.2612233,140.8485612,-4.94,-9.19,0.30,0.00,0
238030,38.2612233,140.8485612,-4.56,-9.06,0.63,0.00,0
238153,38.2612233,140.8485612,-4.84,-8.62,-0.70,0.00,0
238275,38.2612233,140.8485612,-5.95,-9.44,-0.13,0.00,0
238415,38.2612233,140.8485612,-5.40,-9.58,-0.03,0.00,0
238566,38.2612233,140.8485612,-5.95,-8.77,1.24,0.00,0
238717,38.2612233,140.8485612,-6.82,-8.94,1.24,0.00,0
238868,38.2612233,140.8485612,-8.52,-8.33,0.57,0.00,0
239049,38.2612233,140.8485612,-6.82,-8.06,-1.32,0.00,0
239172,38.2612233,140.8485612,-5.78,-8.64,-2.83,0.00,0
239295,38.2612233,140.8485612,-6.78,-9.19,-1.51,0.00,0
239433,38.2612233,140.8485612,-4.40,-6.53,-7.60,0.00,0
239584,38.2612233,140.8485612,-0.61,-7.05,-5.92,0.00,0
239735,38.2612233,140.8485612,-0.32,-8.75,-4.17,0.00,0
239886,38.2612233,140.8485612,0.82,-8.90,-6.22,0.00,0
240067,38.2612233,140.8485612,1.55,-9.04,-4.61,0.00,0
240192,38.2612233,140.8485612,0.51,-9.79,-5.99,0.00,0
240321,38.2612233,140.8485612,-0.03,-7.64,-8.64,0.00,0
240453,38.2612233,140.8485612,-0.63,-7.83,-7.95,0.00,0
240604,38.2612233,140.8485612,-2.26,-6.22,-9.35,0.00,0
240755,38.2612233,140.8485612,-3.58,-6.32,-6.57,0.00,0
240906,38.2612233,140.8485612,-4.82,-6.30,-5.99,0.00,0
241088,38.2612233,140.8485612,-4.08,-7.07,-5.24,0.00,0
241210,38.2612233,140.8485612,-4.27,-7.31,-4.63,0.00,0
241333,38.2612233,140.8485612,-5.03,-7.26,-6.43,0.00,0
241473,38.2612233,140.8485612,-4.52,-7.07,-5.34,0.00,0
241624,38.2612233,140.8485612,-4.36,-7.12,-5.82,0.00,0
241775,38.2612233,140.8485612,-4.59,-6.87,-5.78,0.00,0
241926,38.2612233,140.8485612,-4.36,-7.10,-6.11,0.00,0
242108,38.2612233,140.8485612,-3.71,-2.75,-2.98,0.00,0
242231,38.2612233,140.8485612,-9.25,1.24,-3.94,0.00,0
242354,38.2612233,140.8485612,-12.20,4.77,-1.28,0.00,0
242493,38.2612233,140.8485612,-12.30,3.98,-2.66,0.00,0
242644,38.2612233,140.8485612,-3.69,-5.24,-1.49,0.00,0
242795,38.2612233,140.8485612,-1.41,-9.36,-4.31,0.00,0
242946,38.2612233,140.8485612,-3.33,-9.13,-4.29,0.00,0
243135,38.2612233,140.8485612,0.93,-8.58,-5.76,0.00,0
243258,38.2612233,140.8485612,-2.60,-7.81,-6.26,0.00,0
243381,38.2612233,140.8485612,-5.21,-6.47,-2.01,0.00,0
243510,38.2612233,140.8485612,-4.98,-1.68,-10.36,0.00,0
243661,38.2612233,140.8485612,-5.47,-1.68,-7.72,0.00,0
243812,38.2612233,140.8485612,-4.92,-2.29,-8.69,0.00,0
243963,38.2612233,140.8485612,-4.52,-1.59,-8.89,0.00,0
244147,38.2612233,140.8485612,-4.71,-0.93,-9.00,0.00,0
244269,38.2612233,140.8485612,-5.69,-0.15,-9.31,0.00,0
244392,38.2612233,140.8485612,-5.61,-0.45,-9.98,0.00,0
244529,38.2612233,140.8485612,-5.40,0.82,-7.72,0.00,0
244680,38.2612233,140.8485612,-4.40,2.43,-8.48,0.00,0
244831,38.2612233,140.8485612,-4.06,1.26,-9.44,0.00,0
244982,38.2612233,140.8485612,1.22,-3.29,-8.98,0.00,0
245163,38.2612233,140.8485612,-0.93,-4.48,-8.85,0.00,0
245286,38.2612233,140.8485612,1.99,-6.93,-8.83,0.00,0
245410,38.2612233,140.8485612,2.73,-5.19,-9.92,0.00,0
245548,38.2612233,140.8485612,5.15,-3.48,-7.87,0.00,0
245699,38.2612233,140.8485612,3.42,-4.79,-9.46,0.00,0
245850,38.2612233,140.8485612,2.75,-3.56,-10.02,0.00,0
246001,38.2612233,140.8485612,-1.09,-5.86,-8.00,0.00,0
246183,38.2612233,140.8485612,-2.29,-8.12,-2.43,0.00,0
246306,38.2612233,140.8485612,-2.60,-8.66,-0.72,0.00,0
246428,38.2612233,140.8485612,-2.62,-8.43,1.47,0.00,0
246567,38.2612233,140.8485612,-4.10,-9.13,2.24,0.00,0
246718,38.2612233,140.8485612,-2.29,-9.13,1.32,0.00,0
246869,38.2612233,140.8485612,-1.83,-9.25,1.83,0.00,0
247020,38.2612233,140.8485612,-0.55,-12.18,-0.05,0.00,0
247203,38.2612233,140.8485612,-1.93,-11.70,1.20,0.00,0
247326,38.2612233,140.8485612,-2.60,-12.03,2.60,0.00,0
247449,38.2612233,140.8485612,-2.62,-11.64,1.89,0.00,0
247586,38.2612233,140.8485612,-2.60,-11.34,1.66,0.00,0
247737,38.2612233,140.8485612,-2.45,-10.38,1.26,0.00,0
247888,38.2612233,140.8485612,-2.58,-10.17,2.05,0.00,0
248039,38.2612233,140.8485612,-2.56,-10.69,1.59,0.00,0
248223,38.2612233,140.8485612,-2.35,-10.28,1.22,0.00,0
248346,38.2612233,140.8485612,-1.89,-10.71,1.22,0.00,0
248469,38.2612233,140.8485612,-1.97,-10.25,1.53,0.00,0
248606,38.2612233,140.8485612,-2.33,-10.59,0.93,0.00,0
248757,38.2612233,140.8485612,-2.33,-10.25,1.16,0.00,0
248908,38.2612233,140.8485612,-2.28,-10.36,1.20,0.00,0
249059,38.2612233,140.8485612,-2.49,-10.23,1.30,0.00,0
249241,38.2612233,140.8485612,-2.52,-10.28,1.20,0.00,0
249364,38.2612233,140.8485612,-2.64,-10.30,1.53,0.00,0
249488,38.2612233,140.8485612,-2.43,-10.40,1.26,0.00,0
249626,38.2612233,140.8485612,-2.12,-10.19,1.28,0.00,0
249777,38.2612233,140.8485612,-2.60,-10.36,2.20,0.00,0
249928,38.2612233,140.8485612,-2.10,-10.55,1.36,0.00,0
250079,38.2612233,140.8485612,-1.36,-9.98,1.18,0.00,0
250260,38.2612233,140.8485612,-2.18,-10.88,1.24,0.00,0
250383,38.2612233,140.8485612,-1.64,-10.72,1.24,0.00,0
250506,38.2612233,140.8485612,0.09,-10.34,-1.80,0.00,0
250646,38.2612233,140.8485612,-2.64,-9.67,-1.97,0.00,0
250797,38.2612233,140.8485612,-2.77,-10.28,-1.99,0.00,0
250948,38.2612233,140.8485612,-3.79,-8.10,-4.23,0.00,0
251070,38.2612233,140.8485612,-2.91,-7.45,-8.08,0.00,0
251211,38.2612233,140.8485612,-2.58,-6.64,-7.89,0.00,0
251393,38.2612233,140.8485612,-2.05,-1.97,-8.96,0.00,0
251516,38.2612233,140.8485612,1.83,-0.22,-10.13,0.00,0
251664,38.2612233,140.8485612,-0.17,4.67,-11.41,0.00,0
251815,38.2612233,140.8485612,3.10,3.16,-6.30,0.00,0
251966,38.2612233,140.8485612,3.54,3.31,-8.50,0.00,0
252090,38.2612233,140.8485612,2.89,3.10,-8.90,0.00,0
252229,38.2612233,140.8485612,3.06,2.89,-8.35,0.00,0
252409,38.2612233,140.8485612,3.94,3.27,-8.64,0.00,0
252532,38.2612233,140.8485612,3.90,3.04,-8.75,0.00,0
252682,38.2612233,140.8485612,3.94,3.08,-7.47,0.00,0
252833,38.2612233,140.8485612,4.38,4.40,-7.87,0.00,0
252984,38.2612233,140.8485612,3.98,3.62,-7.93,0.00,0
253106,38.2612233,140.8485612,3.02,3.06,-8.43,0.00,0
253247,38.2612233,140.8485612,2.98,2.98,-8.64,0.00,0
253426,38.2612233,140.8485612,3.37,2.81,-6.34,0.00,0
253551,38.2612233,140.8485612,6.11,2.52,-6.13,0.00,0
253700,38.2612233,140.8485612,5.09,5.93,-5.82,0.00,0
253851,38.2612233,140.8485612,6.59,8.85,-2.75,0.00,0
254002,38.2612233,140.8485612,5.80,9.29,-1.43,0.00,0
254124,38.2612233,140.8485612,6.82,7.79,-1.51,0.00,0
254266,38.2612233,140.8485612,6.51,7.37,1.14,0.00,0
254445,38.2612233,140.8485612,6.72,6.03,0.86,0.00,0
254568,38.2612233,140.8485612,6.03,6.05,1.36,0.00,0
254719,38.2612233,140.8485612,6.78,8.04,2.54,0.00,0
254870,38.2612233,140.8485612,5.09,7.70,1.62,0.00,0
255021,38.2612233,140.8485612,5.42,7.72,0.15,0.00,0
255143,38.2612233,140.8485612,2.89,7.10,-2.98,0.00,0
255285,38.2612233,140.8485612,4.56,7.14,-6.51,0.00,0
255465,38.2612233,140.8485612,0.42,5.72,-5.53,0.00,0
255587,38.2612233,140.8485612,-5.28,4.54,-6.80,0.00,0
255738,38.2612233,140.8485612,-7.20,3.35,-6.84,0.00,0
255889,38.2612233,140.8485612,-7.58,1.89,-3.42,0.00,0
256040,38.2612233,140.8485612,-8.56,1.32,0.47,0.00,0
256162,38.2612233,140.8485612,-8.90,0.97,0.97,0.00,0
256304,38.2612233,140.8485612,-10.92,0.86,0.91,0.00,0
256485,38.2612233,140.8485612,-10.17,1.13,2.03,0.00,0
256608,38.2612233,140.8485612,-9.86,0.84,0.26,0.00,0
256757,38.2612233,140.8485612,-10.51,0.65,0.45,0.00,0
256908,38.2612233,140.8485612,-10.46,0.63,0.19,0.00,0
257059,38.2612233,140.8485612,-12.33,-0.05,-1.99,0.00,0
257181,38.2612233,140.8485612,-5.28,1.99,-5.13,0.00,0
257324,38.2612233,140.8485612,-3.23,2.29,-8.27,0.00,0
257505,38.2612233,140.8485612,-1.95,2.62,-7.68,0.00,0
257630,38.2612233,140.8485612,-24.83,-46.44,-12.47,0.00,0
257777,38.2612233,140.8485612,-1.78,5.44,-8.94,0.00,0
257928,38.2612233,140.8485612,1.20,3.14,-8.92,0.00,0
258079,38.2612233,140.8485612,-2.68,0.07,-8.60,0.00,0
258201,38.2612233,140.8485612,-6.45,1.07,-4.84,0.00,0
258343,38.2612233,140.8485612,-5.61,2.60,-5.32,0.00,0
258524,38.2612233,140.8485612,-10.82,3.85,0.21,0.00,0
258647,38.2612233,140.8485612,-10.49,3.54,1.66,0.00,0
258796,38.2612233,140.8485612,-8.64,3.18,2.60,0.00,0
258947,38.2612233,140.8485612,-8.73,2.60,2.08,0.00,0
259069,38.2612233,140.8485612,-10.07,3.39,3.00,0.00,0
259210,38.2612233,140.8485612,-9.56,2.64,2.56,0.00,0
259361,38.2612233,140.8485612,-9.15,2.79,2.12,0.00,0
259541,38.2612233,140.8485612,-8.96,2.62,2.05,0.00,0
259664,38.2612233,140.8485612,-8.81,2.41,1.97,0.00,0
259815,38.2612233,140.8485612,-6.99,4.69,5.09,0.00,0
259966,38.2612233,140.8485612,-5.92,5.72,7.60,0.00,0
260088,38.2612233,140.8485612,-3.29,4.69,5.86,0.00,0
260229,38.2612233,140.8485612,-1.60,6.59,7.97,0.00,0
260380,38.2612233,140.8485612,-2.37,5.53,6.85,0.00,0
260560,38.2612233,140.8485612,-2.70,6.24,6.99,0.00,0
260683,38.2612233,140.8485612,-4.15,5.88,-3.21,0.00,0
260833,38.2612233,140.8485612,-0.76,2.56,-14.54,0.00,0
260984,38.2612233,140.8485612,5.97,1.72,-5.36,0.00,0
261106,38.2612233,140.8485612,8.60,1.36,-5.97,0.00,0
261247,38.2612233,140.8485612,9.08,-0.47,-3.35,0.00,0
261398,38.2612233,140.8485612,9.56,-0.49,-2.31,0.00,0
261579,38.2612233,140.8485612,7.10,-3.81,-3.90,0.00,0
261703,38.2612233,140.8485612,7.26,-6.32,-4.44,0.00,0
261851,38.2612233,140.8485612,2.62,-9.21,-0.17,0.00,0
262002,38.2612233,140.8485612,4.50,-8.52,-3.37,0.00,0
262124,38.2612233,140.8485612,2.91,-10.44,-2.68,0.00,0
262266,38.2612233,140.8485612,3.25,-9.36,-4.27,0.00,0
262417,38.2612233,140.8485612,2.66,-8.71,-1.66,0.00,0
262598,38.2612233,140.8485612,3.27,-10.34,-3.39,0.00,0
262721,38.2612233,140.8485612,3.00,-9.65,-2.70,0.00,0
262870,38.2612233,140.8485612,3.37,-9.12,-3.31,0.00,0
263021,38.2612233,140.8485612,3.39,-9.71,-3.54,0.00,0
263142,38.2612233,140.8485612,3.04,-9.31,-2.29,0.00,0
263285,38.2612233,140.8485612,3.37,-9.59,-4.15,0.00,0
263436,38.2612233,140.8485612,2.77,-9.42,-3.29,0.00,0
263616,38.2612233,140.8485612,3.12,-9.06,-3.79,0.00,0
263739,38.2612233,140.8485612,2.49,-9.10,-4.52,0.00,0
263889,38.2612233,140.8485612,3.19,-9.27,-4.79,0.00,0
264040,38.2612233,140.8485612,2.08,-9.04,-5.67,0.00,0
264162,38.2612233,140.8485612,3.16,-9.42,-3.62,0.00,0
264305,38.2612233,140.8485612,1.70,-9.96,-3.08,0.00,0
264456,38.2612233,140.8485612,2.45,-9.00,-3.77,0.00,0
264637,38.2612233,140.8485612,-1.82,-3.27,-1.30,0.00,0
264759,38.2612233,140.8485612,-0.93,11.17,-15.04,0.00,0
264909,38.2612233,140.8485612,-7.24,11.13,-5.49,0.00,0
265060,38.2612233,140.8485612,-4.15,8.79,-1.41,0.00,0
265182,38.2612233,140.8485612,-1.78,8.14,-1.74,0.00,0
265325,38.2612233,140.8485612,-1.13,8.60,-2.52,0.00,0
265476,38.2612233,140.8485612,-1.11,9.33,-2.22,0.00,0
265657,38.2612233,140.8485612,0.61,9.31,-2.29,0.00,0
265781,38.2612233,140.8485612,0.76,9.10,-2.20,0.00,0
265929,38.2612233,140.8485612,0.44,9.42,-2.20,0.00,0
266080,38.2612233,140.8485612,0.38,9.50,-2.87,0.00,0
266202,38.2612233,140.8485612,-0.61,9.50,-2.91,0.00,0
266345,38.2612233,140.8485612,-2.58,9.65,-2.93,0.00,0
266496,38.2612233,140.8485612,-4.29,9.46,-3.44,0.00,0
266677,38.2612233,140.8485612,-3.25,4.54,-1.87,0.00,0
266800,38.2612233,140.8485612,-6.07,2.26,-2.60,0.00,0
266949,38.2612233,140.8485612,-4.84,3.00,-3.06,0.00,0
267073,38.2612233,140.8485612,-4.52,6.97,-5.92,0.00,0
267212,38.2612233,140.8485612,-2.22,9.40,-3.46,0.00,0
267363,38.2612233,140.8485612,0.05,10.74,-2.70,0.00,0
267514,38.2612233,140.8485612,0.03,8.16,-3.39,0.00,0
267694,38.2612233,140.8485612,0.49,8.81,-3.14,0.00,0
267816,38.2612233,140.8485612,1.37,9.08,-2.62,0.00,0
267967,38.2612233,140.8485612,0.93,8.39,-3.12,0.00,0
268089,38.2612233,140.8485612,0.53,8.29,-3.27,0.00,0
268230,38.2612233,140.8485612,0.19,9.02,-3.50,0.00,0
268381,38.2612233,140.8485612,-0.72,9.12,-3.37,0.00,0
268532,38.2612233,140.8485612,-1.99,10.59,-4.65,0.00,0
268714,38.2612233,140.8485612,-2.64,11.24,-5.09,0.00,0
268837,38.2612233,140.8485612,-2.73,11.01,-3.69,0.00,0
268986,38.2612233,140.8485612,-0.86,4.57,-1.51,0.00,0
269108,38.2612233,140.8485612,0.61,7.12,-1.41,0.00,0
269249,38.2612233,140.8485612,0.01,7.81,-1.80,0.00,0
269400,38.2612233,140.8485612,-0.40,7.20,-1.53,0.00,0
269551,38.2612233,140.8485612,-5.23,12.76,1.47,0.00,0
269731,38.2612233,140.8485612,-1.14,6.34,-3.18,0.00,0
269855,38.2612233,140.8485612,-2.31,9.96,-0.55,0.00,0
270004,38.2612233,140.8485612,0.34,8.39,-1.05,0.00,0
270126,38.2612233,140.8485612,-0.88,9.94,-2.28,0.00,0
270267,38.2612233,140.8485612,-2.28,9.35,-0.65,0.00,0
270418,38.2612233,140.8485612,-4.56,7.77,-3.19,0.00,0
270569,38.2612233,140.8485612,-3.27,5.72,-4.25,0.00,0
270750,38.2612233,140.8485612,-3.98,6.13,-7.16,0.00,0
270873,38.2612233,140.8485612,-5.26,5.23,-6.13,0.00,0
271022,38.2612233,140.8485612,-5.21,4.57,-7.51,0.00,0
271146,38.2612233,140.8485612,-5.40,4.40,-7.28,0.00,0
271286,38.2612233,140.8485612,-4.82,4.06,-6.82,0.00,0
271437,38.2612233,140.8485612,-3.46,4.56,-6.59,0.00,0
271588,38.2612233,140.8485612,-3.75,5.82,-6.68,0.00,0
271769,38.2612233,140.8485612,-5.24,5.47,-7.95,0.00,0
271892,38.2612233,140.8485612,-3.64,5.47,-6.78,0.00,0
272041,38.2612233,140.8485612,-3.65,5.38,-6.80,0.00,0
272163,38.2612233,140.8485612,-3.75,4.79,-6.87,0.00,0
272305,38.2612233,140.8485612,-4.79,4.08,-6.09,0.00,0
272456,38.2612233,140.8485612,-4.75,4.71,-5.86,0.00,0
272607,38.2612233,140.8485612,-5.49,4.77,-6.55,0.00,0
272788,38.2612233,140.8485612,-5.49,3.87,-6.72,0.00,0
272911,38.2612233,140.8485612,-5.84,3.56,-7.47,0.00,0
273060,38.2612233,140.8485612,-6.45,3.14,-7.66,0.00,0
273182,38.2612233,140.8485612,-5.57,2.54,-6.47,0.00,0
273324,38.2612233,140.8485612,-5.72,2.33,-6.64,0.00,0
273475,38.2612233,140.8485612,-6.38,1.80,-6.45,0.00,0
273626,38.2612233,140.8485612,-6.09,1.74,-7.03,0.00,0
273806,38.2612233,140.8485612,-6.43,2.18,-6.39,0.00,0
273931,38.2612233,140.8485612,-6.13,2.96,-6.99,0.00,0
274079,38.2612233,140.8485612,-6.49,4.13,-5.44,0.00,0
274202,38.2612233,140.8485612,-6.34,3.62,-5.99,0.00,0
274343,38.2612233,140.8485612,-5.61,3.23,-6.59,0.00,0
274494,38.2612233,140.8485612,-5.72,3.50,-7.70,0.00,0
274645,38.2612233,140.8485612,-4.25,5.72,-5.19,0.00,0
274826,38.2612233,140.8485612,-5.21,8.67,-6.70,0.00,0
274948,38.2612233,140.8485612,-4.57,7.75,-5.78,0.00,0
275071,38.2612233,140.8485612,-3.56,2.54,-3.50,0.00,0
275210,38.2612233,140.8485612,-6.09,5.49,-4.44,0.00,0
275361,38.2612233,140.8485612,-8.29,6.43,-5.05,0.00,0
275512,38.2612233,140.8485612,-5.42,3.14,-4.61,0.00,0
275663,38.2612233,140.8485612,-3.65,2.41,-4.19,0.00,0
275844,38.2612233,140.8485612,-5.55,3.98,-7.85,0.00,0
275967,38.2612233,140.8485612,-4.00,12.87,-12.09,0.00,0
276090,38.2612233,140.8485612,-5.95,6.85,-9.92,0.00,0
276228,38.2612233,140.8485612,-4.02,8.23,-8.66,0.00,0
276379,38.2612233,140.8485612,-2.18,-0.65,-1.26,0.00,0
276530,38.2612233,140.8485612,-5.07,1.09,-7.31,0.00,0
276681,38.2612233,140.8485612,-10.11,3.60,-14.02,0.00,0
276864,38.2612233,140.8485612,-4.65,0.80,-4.65,0.00,0
276987,38.2612233,140.8485612,-6.39,1.62,-5.57,0.00,0
277110,38.2612233,140.8485612,-6.39,3.41,-7.75,0.00,0
277246,38.2612233,140.8485612,-4.75,3.79,-6.91,0.00,0
277397,38.2612233,140.8485612,-5.53,4.52,-6.18,0.00,0
277548,38.2612233,140.8485612,-5.05,3.92,-5.97,0.00,0
277699,38.2612233,140.8485612,-5.11,4.52,-7.72,0.00,0
277880,38.2612233,140.8485612,-4.69,4.54,-7.01,0.00,0
278004,38.2612233,140.8485612,-4.57,3.16,-7.22,0.00,0
278126,38.2612233,140.8485612,-5.88,2.83,-6.74,0.00,0
278264,38.2612233,140.8485612,-5.99,3.54,-7.16,0.00,0
278415,38.2612233,140.8485612,-5.67,3.52,-5.97,0.00,0
278566,38.2612233,140.8485612,-5.36,3.12,-6.24,0.00,0
278717,38.2612233,140.8485612,-5.67,3.96,-7.16,0.00,0
278897,38.2612233,140.8485612,-5.82,3.85,-6.74,0.00,0
279020,38.2612233,140.8485612,-5.47,3.77,-6.28,0.00,0
279142,38.2612233,140.8485612,-6.05,3.79,-6.68,0.00,0
279284,38.2612233,140.8485612,-6.28,4.02,-6.39,0.00,0
279435,38.2612233,140.8485612,-5.92,3.73,-5.67,0.00,0
279586,38.2612233,140.8485612,-6.11,3.56,-5.99,0.00,0
279737,38.2612233,140.8485612,-6.72,3.77,-6.01,0.00,0
279918,38.2612233,140.8485612,-5.92,3.62,-6.11,0.00,0
280041,38.2612233,140.8485612,-5.95,3.14,-6.28,0.00,0
280164,38.2612233,140.8485612,-6.20,3.33,-6.72,0.00,0
280304,38.2612233,140.8485612,-6.45,3.79,-7.14,0.00,0
280455,38.2612233,140.8485612,-5.72,3.56,-6.26,0.00,0
280606,38.2612233,140.8485612,-5.69,3.02,-6.38,0.00,0
280757,38.2612233,140.8485612,-6.49,3.08,-7.08,0.00,0
280938,38.2612233,140.8485612,-5.99,3.16,-6.97,0.00,0
281061,38.2612233,140.8485612,-5.55,2.98,-6.74,0.00,0
281184,38.2612233,140.8485612,-5.99,3.10,-6.72,0.00,0
281323,38.2612233,140.8485612,-6.11,3.12,-6.72,0.00,0
281474,38.2612233,140.8485612,-6.05,3.04,-6.80,0.00,0
281625,38.2612233,140.8485612,-6.20,3.16,-6.76,0.00,0
281776,38.2612233,140.8485612,-5.86,3.18,-6.57,0.00,0
281957,38.2612233,140.8485612,-5.93,3.18,-6.62,0.00,0
282081,38.2612233,140.8485612,-6.15,3.18,-6.72,0.00,0
282204,38.2612233,140.8485612,-6.22,3.14,-6.39,0.00,0
282342,38.2612233,140.8485612,-6.05,3.37,-6.61,0.00,0
282493,38.2612233,140.8485612,-6.11,3.54,-6.74,0.00,0
282644,38.2612233,140.8485612,-5.72,3.21,-6.47,0.00,0
282795,38.2612233,140.8485612,-6.01,3.46,-6.61,0.00,0
282976,38.2612233,140.8485612,-5.99,3.42,-6.51,0.00,0
283099,38.2612233,140.8485612,-5.97,3.54,-6.26,0.00,0
283221,38.2612233,140.8485612,-5.93,3.58,-6.26,0.00,0
283361,38.2612233,140.8485612,-6.07,3.67,-6.28,0.00,0
283512,38.2612233,140.8485612,-5.86,3.67,-6.59,0.00,0
283663,38.2612233,140.8485612,-6.45,3.60,-6.38,0.00,0
283814,38.2612233,140.8485612,-6.26,3.54,-6.61,0.00,0
283995,38.2612233,140.8485612,-6.59,3.16,-6.59,0.00,0
284118,38.2612233,140.8485612,-6.89,3.46,-6.26,0.00,0
284241,38.2612233,140.8485612,-8.46,4.34,-6.15,0.00,0
284379,38.2612233,140.8485612,-7.60,4.61,-4.29,0.00,0
284530,38.2612233,140.8485612,-7.87,4.59,-4.67,0.00,0
284681,38.2612233,140.8485612,-6.97,3.29,-3.69,0.00,0
284832,38.2612233,140.8485612,-6.99,0.74,-3.90,0.00,0
285013,38.2612233,140.8485612,-9.19,-0.78,-5.65,0.00,0
285136,38.2612233,140.8485612,-9.40,0.22,-3.77,0.00,0
285258,38.2612233,140.8485612,-8.44,0.72,-4.19,0.00,0
285397,38.2612233,140.8485612,-8.89,0.90,-1.43,0.00,0
285548,38.2612233,140.8485612,-9.19,1.14,-2.28,0.00,0
285699,38.2612233,140.8485612,-9.81,-0.34,-2.39,0.00,0
285850,38.2612233,140.8485612,-8.92,-1.95,-1.55,0.00,0
286032,38.2612233,140.8485612,-9.90,-1.62,-1.83,0.00,0
286156,38.2612233,140.8485612,-9.90,-1.95,-0.28,0.00,0
286279,38.2612233,140.8485612,-10.17,-1.89,-0.55,0.00,0
286416,38.2612233,140.8485612,-9.69,-1.45,-0.91,0.00,0
286567,38.2612233,140.8485612,-9.59,-1.37,-1.60,0.00,0
286718,38.2612233,140.8485612,-9.90,-1.07,-0.68,0.00,0
286869,38.2612233,140.8485612,-9.17,-0.80,-1.14,0.00,0
287051,38.2612233,140.8485612,-9.90,0.99,-4.38,0.00,0
287173,38.2612233,140.8485612,-7.81,2.93,-6.55,0.00,0
287296,38.2612233,140.8485612,-5.57,4.04,-6.87,0.00,0
287435,38.2612233,140.8485612,-4.52,4.27,-7.01,0.00,0
287586,38.2612233,140.8485612,-5.23,4.88,-5.61,0.00,0
287737,38.2612233,140.8485612,-3.29,4.25,-7.08,0.00,0
287888,38.2612233,140.8485612,-2.95,4.15,-8.08,0.00,0
288069,38.2612233,140.8485612,-2.77,2.01,-10.02,0.00,0
288192,38.2612233,140.8485612,-4.71,-3.12,-7.37,0.00,0
288314,38.2612233,140.8485612,-2.87,-6.89,-6.01,0.00,0
288454,38.2612233,140.8485612,-4.23,-8.04,-4.65,0.00,0
288605,38.2612233,140.8485612,-4.04,-8.10,-4.52,0.00,0
288756,38.2612233,140.8485612,-2.62,-7.79,-3.83,0.00,0
288907,38.2612233,140.8485612,-2.66,-1.01,-9.90,0.00,0
289089,38.2612233,140.8485612,-2.64,2.03,-9.50,0.00,0
289212,38.2612233,140.8485612,-2.58,1.82,-7.95,0.00,0
289335,38.2612233,140.8485612,-2.58,3.88,-7.79,0.00,0
289473,38.2612233,140.8485612,-1.16,3.44,-9.23,0.00,0
289624,38.2612233,140.8485612,-0.34,3.12,-11.76,0.00,0
289775,38.2612233,140.8485612,-3.96,3.92,-11.53,0.00,0
289926,38.2612233,140.8485612,-5.49,-2.45,-2.98,0.00,0
290110,38.2612233,140.8485612,-10.07,-1.62,1.80,0.00,0
290233,38.2612233,140.8485612,-8.96,-1.43,1.97,0.00,0
290356,38.2612233,140.8485612,-8.58,-2.14,3.92,0.00,0
290492,38.2612233,140.8485612,-9.86,-3.88,-0.78,0.00,0
290643,38.2612233,140.8485612,-10.23,-3.98,3.56,0.00,0
290794,38.2612233,140.8485612,-6.62,-2.54,7.12,0.00,0
290945,38.2612233,140.8485612,-8.21,-4.25,7.01,0.00,0
291126,38.2612233,140.8485612,-5.88,-3.71,7.74,0.00,0
291249,38.2612233,140.8485612,-5.61,-3.02,8.33,0.00,0
291372,38.2612233,140.8485612,-5.76,-3.56,8.37,0.00,0
291510,38.2612233,140.8485612,-6.47,-2.68,7.05,0.00,0
291661,38.2612233,140.8485612,-7.62,-4.44,6.24,0.00,0
291812,38.2612233,140.8485612,-7.72,-5.34,4.27,0.00,0
291963,38.2612233,140.8485612,-7.93,-4.42,5.67,0.00,0
292144,38.2612233,140.8485612,-8.04,-5.15,5.15,0.00,0
292267,38.2612233,140.8485612,-7.68,-4.52,3.92,0.00,0
292390,38.2612233,140.8485612,-8.48,-6.13,4.11,0.00,0
292528,38.2612233,140.8485612,-6.85,-5.01,1.99,0.00,0
292679,38.2612233,140.8485612,-9.94,-1.70,2.41,0.00,0
292830,38.2612233,140.8485612,-5.21,14.08,1.18,0.00,0
292981,38.2612233,140.8485612,-0.09,6.76,3.73,0.00,0
293160,38.2612233,140.8485612,5.69,4.73,5.11,0.00,0
293283,38.2612233,140.8485612,5.15,5.00,5.74,0.00,0
293406,38.2612233,140.8485612,5.17,4.00,5.86,0.00,0
293547,38.2612233,140.8485612,3.08,5.49,5.90,0.00,0
293698,38.2612233,140.8485612,-6.03,11.55,4.08,0.00,0
293849,38.2612233,140.8485612,-8.89,3.50,2.75,0.00,0
294000,38.2612233,140.8485612,-3.46,-5.00,6.84,0.00,0
294183,38.2612233,140.8485612,-3.67,-5.67,8.04,0.00,0
294306,38.2612233,140.8485612,-2.58,-5.40,9.10,0.00,0
294429,38.2612233,140.8485612,-2.58,-6.70,7.47,0.00,0
294566,38.2612233,140.8485612,-1.83,-5.88,8.56,0.00,0
294717,38.2612233,140.8485612,-1.37,-5.84,9.04,0.00,0
294868,38.2612233,140.8485612,-2.60,-6.03,8.20,0.00,0
295019,38.2612233,140.8485612,-2.22,-5.17,8.66,0.00,0
295200,38.2612233,140.8485612,-2.03,-4.33,8.79,0.00,0
295323,38.2612233,140.8485612,-2.03,-4.46,8.98,0.00,0
295446,38.2612233,140.8485612,-1.22,-4.86,9.33,0.00,0
295585,38.2612233,140.8485612,-1.74,-4.40,9.52,0.00,0
295736,38.2612233,140.8485612,-1.18,-4.52,8.83,0.00,0
295887,38.2612233,140.8485612,-1.01,-4.11,9.88,0.00,0
296038,38.2612233,140.8485612,-1.14,-2.98,9.75,0.00,0
296219,38.2612233,140.8485612,-0.97,-1.78,9.90,0.00,0
296342,38.2612233,140.8485612,-2.50,-1.74,9.50,0.00,0
296465,38.2612233,140.8485612,-1.49,-0.88,9.98,0.00,0
296604,38.2612233,140.8485612,-1.14,-0.65,9.92,0.00,0
296755,38.2612233,140.8485612,-2.12,-1.72,9.84,0.00,0
296906,38.2612233,140.8485612,-1.41,-1.80,10.55,0.00,0
297057,38.2612233,140.8485612,-1.60,-2.28,10.59,0.00,0
297239,38.2612233,140.8485612,-1.91,-2.22,9.77,0.00,0
297361,38.2612233,140.8485612,-1.80,-2.60,10.00,0.00,0
297484,38.2612233,140.8485612,-1.59,-2.73,9.77,0.00,0
297623,38.2612233,140.8485612,-1.45,-2.75,9.98,0.00,0
297774,38.2612233,140.8485612,-1.20,-2.33,9.94,0.00,0
297925,38.2612233,140.8485612,-1.14,-2.03,9.96,0.00,0
298076,38.2612233,140.8485612,-0.32,-2.14,10.00,0.00,0
298260,38.2612233,140.8485612,-0.82,-1.64,10.11,0.00,0
298383,38.2612233,140.8485612,-1.28,-1.74,10.21,0.00,0
298506,38.2612233,140.8485612,-1.49,-1.53,9.59,0.00,0
298642,38.2612233,140.8485612,-0.44,-0.70,10.36,0.00,0
298793,38.2612233,140.8485612,-3.31,-2.49,8.46,0.00,0
298944,38.2612233,140.8485612,-4.98,-0.91,5.07,0.00,0
299066,38.2612233,140.8485612,-5.74,2.85,2.41,0.00,0
299207,38.2612233,140.8485612,-7.28,6.45,-1.20,0.00,0
299388,38.2612233,140.8485612,-2.89,11.22,1.57,0.00,0
299511,38.2612233,140.8485612,1.60,8.89,1.74,0.00,0
299660,38.2612233,140.8485612,-3.85,7.98,-2.52,0.00,0
299811,38.2612233,140.8485612,-0.84,11.32,-2.70,0.00,0
299962,38.2612233,140.8485612,-2.58,9.31,-1.72,0.00,0
300084,38.2612233,140.8485612,0.00,11.01,3.35,0.00,0
300225,38.2612233,140.8485612,-14.65,24.96,11.80,0.00,0
300408,38.2612233,140.8485612,-0.67,9.27,-0.45,0.00,0
300531,38.2612233,140.8485612,-0.26,9.35,-0.36,0.00,0
300678,38.2612233,140.8485612,-0.13,9.25,-0.22,0.00,0
300829,38.2612233,140.8485612,-0.15,9.25,-0.22,0.00,0
300980,38.2612233,140.8485612,-0.15,9.25,-0.24,0.00,0
301102,38.2612233,140.8485612,-0.11,9.23,-0.24,0.00,0
301244,38.2612233,140.8485612,-0.15,9.23,-0.24,0.00,0
301425,38.2612233,140.8485612,-0.11,9.23,-0.22,0.00,0
301548,38.2612233,140.8485612,-0.15,9.23,-0.24,0.00,0
301697,38.2612233,140.8485612,-0.15,9.21,-0.24,0.00,0
301848,38.2612233,140.8485612,-0.13,9.25,-0.22,0.00,0
301999,38.2612233,140.8485612,-0.13,9.23,-0.22,0.00,0
302121,38.2612233,140.8485612,-0.13,9.23,-0.26,0.00,0
302263,38.2612233,140.8485612,-0.17,9.23,-0.19,0.00,0
302444,38.2612233,140.8485612,-0.15,9.23,-0.24,0.00,0
302567,38.2612233,140.8485612,-0.13,9.25,-0.24,0.00,0
302716,38.2612233,140.8485612,-0.13,9.23,-0.22,0.00,0
302867,38.2612233,140.8485612,-0.13,9.21,-0.22,0.00,0
303018,38.2612233,140.8485612,-0.15,9.27,-0.24,0.00,0
303140,38.2612233,140.8485612,-0.15,9.21,-0.26,0.00,0
303282,38.2612233,140.8485612,-0.15,9.25,-0.24,0.00,0
303463,38.2612233,140.8485612,-0.13,9.25,-0.24,0.00,0
303588,38.2612233,140.8485612,-0.15,9.25,-0.22,0.00,0
303735,38.2612233,140.8485612,-0.13,9.25,-0.22,0.00,0
303886,38.2612233,140.8485612,-0.13,9.23,-0.26,0.00,0
304037,38.2612233,140.8485612,-0.15,9.23,-0.24,0.00,0
304167,38.2612233,140.8485612,-0.17,9.23,-0.21,0.00,0
304300,38.2612233,140.8485612,-0.13,9.25,-0.24,0.00,0
304481,38.2612233,140.8485612,-0.15,9.23,-0.22,0.00,0
304603,38.2612233,140.8485612,-0.11,9.21,-0.21,0.00,0
304753,38.2612233,140.8485612,-0.17,9.23,-0.22,0.00,0
304904,38.2612233,140.8485612,-0.13,9.25,-0.24,0.00,0
305055,38.2612233,140.8485612,-0.15,9.23,-0.24,0.00,0
305177,38.2612233,140.8485612,-0.15,9.25,-0.22,0.00,0
305319,38.2612233,140.8485612,-0.13,9.25,-0.24,0.00,0
305500,38.2612233,140.8485612,-0.21,9.29,-0.22,0.00,0
305622,38.2612233,140.8485612,-0.15,9.23,-0.24,0.00,0
305772,38.2612233,140.8485612,-1.16,10.88,1.45,0.00,0
305923,38.2612233,140.8485612,-2.31,12.37,-0.45,0.00,0
306074,38.2612233,140.8485612,-5.95,8.29,-3.02,0.00,0
306196,38.2612233,140.8485612,-6.41,4.96,-4.42,0.00,0
306338,38.2612233,140.8485612,-6.09,-0.76,-4.23,0.00,0
306520,38.2612233,140.8485612,-7.68,-2.16,-3.94,0.00,0
306643,38.2612233,140.8485612,-7.75,3.27,1.70,0.00,0
306791,38.2612233,140.8485612,-7.64,-3.75,-3.23,0.00,0
306942,38.2612233,140.8485612,-8.73,0.99,-3.92,0.00,0
307064,38.2612233,140.8485612,-7.31,2.01,-6.99,0.00,0
307205,38.2612233,140.8485612,-4.27,1.41,-7.31,0.00,0
307356,38.2612233,140.8485612,-4.98,-0.86,-6.84,0.00,0
307538,38.2612233,140.8485612,-3.94,-1.14,-7.49,0.00,0
307662,38.2612233,140.8485612,-1.24,1.18,-10.03,0.00,0
307809,38.2612233,140.8485612,-2.35,2.81,-10.30,0.00,0
307960,38.2612233,140.8485612,-0.47,0.91,-7.10,0.00,0
308082,38.2612233,140.8485612,0.51,2.77,-9.00,0.00,0
308223,38.2612233,140.8485612,2.26,2.66,-10.51,0.00,0
308374,38.2612233,140.8485612,3.79,2.37,-10.40,0.00,0
308555,38.2612233,140.8485612,3.31,0.22,-12.51,0.00,0
308678,38.2612233,140.8485612,5.21,0.78,-8.46,0.00,0
308827,38.2612233,140.8485612,4.06,1.49,-7.24,0.00,0
308978,38.2612233,140.8485612,7.95,2.91,-8.33,0.00,0
309102,38.2612233,140.8485612,6.84,0.88,-6.01,0.00,0
309242,38.2612233,140.8485612,6.89,1.03,-4.21,0.00,0
309393,38.2612233,140.8485612,8.66,2.96,-6.07,0.00,0
309573,38.2612233,140.8485612,8.79,0.68,-4.61,0.00,0
309696,38.2612233,140.8485612,8.90,0.21,-4.10,0.00,0
309846,38.2612233,140.8485612,9.23,0.03,-4.00,0.00,0
309997,38.2612233,140.8485612,9.06,0.07,-4.06,0.00,0
310119,38.2612233,140.8485612,7.47,-0.61,-4.00,0.00,0
310261,38.2612233,140.8485612,9.38,-0.53,-4.46,0.00,0
310412,38.2612233,140.8485612,9.13,0.00,-5.07,0.00,0
310592,38.2612233,140.8485612,8.29,0.01,-4.84,0.00,0
310715,38.2612233,140.8485612,8.44,-0.03,-4.90,0.00,0
310865,38.2612233,140.8485612,8.92,0.22,-4.80,0.00,0
311016,38.2612233,140.8485612,10.49,-0.03,-5.09,0.00,0
311139,38.2612233,140.8485612,8.33,-0.61,-5.36,0.00,0
311280,38.2612233,140.8485612,7.56,-0.28,-6.43,0.00,0
311431,38.2612233,140.8485612,8.75,-0.44,-6.89,0.00,0
311612,38.2612233,140.8485612,7.66,-0.59,-6.38,0.00,0
311737,38.2612233,140.8485612,7.05,-0.67,-6.93,0.00,0
311884,38.2612233,140.8485612,7.30,-0.61,-6.68,0.00,0
312035,38.2612233,140.8485612,7.20,-0.61,-6.76,0.00,0
312157,38.2612233,140.8485612,7.24,-0.76,-6.74,0.00,0
312299,38.2612233,140.8485612,7.41,-0.65,-6.64,0.00,0
312450,38.2612233,140.8485612,6.99,-0.63,-6.89,0.00,0
312631,38.2612233,140.8485612,6.62,-0.44,-7.33,0.00,0
312754,38.2612233,140.8485612,6.18,-0.65,-7.64,0.00,0
312903,38.2612233,140.8485612,6.49,-0.49,-7.47,0.00,0
313054,38.2612233,140.8485612,6.01,-0.44,-7.66,0.00,0
313178,38.2612233,140.8485612,6.09,-0.21,-7.83,0.00,0
313318,38.2612233,140.8485612,5.93,-0.40,-7.87,0.00,0
313469,38.2612233,140.8485612,5.88,-0.40,-7.95,0.00,0
313650,38.2612233,140.8485612,6.01,-0.30,-8.04,0.00,0
313773,38.2612233,140.8485612,5.97,-0.57,-7.93,0.00,0
313922,38.2612233,140.8485612,5.86,-0.45,-7.95,0.00,0
314073,38.2612233,140.8485612,5.95,-0.68,-7.91,0.00,0
314195,38.2612233,140.8485612,5.92,-0.45,-7.93,0.00,0
314337,38.2612233,140.8485612,5.92,-0.45,-7.93,0.00,0
314488,38.2612233,140.8485612,5.93,-0.49,-7.91,0.00,0
314669,38.2612233,140.8485612,5.95,-0.45,-7.95,0.00,0
314792,38.2612233,140.8485612,5.92,-0.47,-7.95,0.00,0
314941,38.2612233,140.8485612,5.93,-0.51,-7.93,0.00,0
315092,38.2612233,140.8485612,5.90,-0.42,-7.97,0.00,0
315214,38.2612233,140.8485612,4.73,-0.21,-8.73,0.00,0
315356,38.2612233,140.8485612,4.48,-0.38,-8.21,0.00,0
315507,38.2612233,140.8485612,5.97,-0.55,-7.77,0.00,0
315688,38.2612233,140.8485612,4.50,-0.86,-8.83,0.00,0
315812,38.2612233,140.8485612,4.96,-0.49,-8.14,0.00,0
315960,38.2612233,140.8485612,5.61,-0.57,-8.08,0.00,0
316082,38.2612233,140.8485612,5.92,-0.61,-7.93,0.00,0
316223,38.2612233,140.8485612,5.82,-0.38,-8.00,0.00,0
316374,38.2612233,140.8485612,5.90,-0.38,-7.95,0.00,0
316525,38.2612233,140.8485612,5.90,-0.36,-7.97,0.00,0
316706,38.2612233,140.8485612,5.92,-0.36,-7.97,0.00,0
316829,38.2612233,140.8485612,5.95,-0.38,-7.89,0.00,0
316978,38.2612233,140.8485612,5.93,-0.36,-7.93,0.00,0
317100,38.2612233,140.8485612,5.92,-0.34,-7.97,0.00,0
317241,38.2612233,140.8485612,5.93,-0.38,-7.93,0.00,0
317392,38.2612233,140.8485612,5.97,-0.38,-7.85,0.00,0
317543,38.2612233,140.8485612,5.92,-0.34,-7.95,0.00,0
317724,38.2612233,140.8485612,5.90,-0.36,-7.95,0.00,0
317847,38.2612233,140.8485612,5.92,-0.38,-7.93,0.00,0
317996,38.2612233,140.8485612,5.92,-0.42,-7.95,0.00,0
318118,38.2612233,140.8485612,5.95,-0.36,-7.91,0.00,0
318260,38.2612233,140.8485612,5.92,-0.36,-7.97,0.00,0
318411,38.2612233,140.8485612,5.88,-0.36,-8.00,0.00,0
318562,38.2612233,140.8485612,5.84,-0.38,-8.00,0.00,0
318743,38.2612233,140.8485612,5.88,-0.38,-7.98,0.00,0
318866,38.2612233,140.8485612,5.86,-0.36,-8.00,0.00,0
319015,38.2612233,140.8485612,5.84,-0.38,-7.98,0.00,0
319137,38.2612233,140.8485612,5.78,-0.36,-7.98,0.00,0
319279,38.2612233,140.8485612,5.84,-0.36,-7.97,0.00,0
319430,38.2612233,140.8485612,5.82,-0.38,-7.98,0.00,0
319581,38.2612233,140.8485612,5.84,-0.36,-7.97,0.00,0
319762,38.2612233,140.8485612,5.55,-0.51,-8.23,0.00,0
319887,38.2612233,140.8485612,5.76,-0.36,-8.06,0.00,0
320034,38.2612233,140.8485612,5.72,-0.38,-8.08,0.00,0
320156,38.2612233,140.8485612,5.69,-0.38,-8.14,0.00,0
320298,38.2612233,140.8485612,5.80,-0.42,-8.06,0.00,0
320449,38.2612233,140.8485612,5.82,-0.38,-8.00,0.00,0
320600,38.2612233,140.8485612,5.63,-0.36,-8.12,0.00,0
320781,38.2612233,140.8485612,5.69,-0.36,-8.10,0.00,0
320904,38.2612233,140.8485612,5.63,-0.36,-8.16,0.00,0
321053,38.2612233,140.8485612,5.69,-0.36,-8.10,0.00,0
321175,38.2612233,140.8485612,5.65,-0.38,-8.12,0.00,0
321317,38.2612233,140.8485612,5.67,-0.38,-8.14,0.00,0
321468,38.2612233,140.8485612,5.63,-0.38,-8.12,0.00,0
321619,38.2612233,140.8485612,5.65,-0.38,-8.16,0.00,0
321800,38.2612233,140.8485612,5.61,-0.38,-8.18,0.00,0
321923,38.2612233,140.8485612,5.67,-0.40,-8.12,0.00,0
322072,38.2612233,140.8485612,5.63,-0.40,-8.12,0.00,0
322194,38.2612233,140.8485612,5.63,-0.38,-8.10,0.00,0
322335,38.2612233,140.8485612,5.70,-0.36,-8.08,0.00,0
322486,38.2612233,140.8485612,5.70,-0.40,-8.10,0.00,0
322637,38.2612233,140.8485612,5.69,-0.36,-8.12,0.00,0
322818,38.2612233,140.8485612,5.72,-0.36,-8.08,0.00,0
322941,38.2612233,140.8485612,5.70,-0.38,-8.08,0.00,0
323090,38.2612233,140.8485612,5.70,-0.40,-8.10,0.00,0
323213,38.2612233,140.8485612,5.70,-0.38,-8.06,0.00,0
323353,38.2612233,140.8485612,5.72,-0.34,-8.12,0.00,0
323504,38.2612233,140.8485612,5.74,-0.40,-8.06,0.00,0
323655,38.2612233,140.8485612,5.72,-0.40,-8.12,0.00,0
323836,38.2612233,140.8485612,5.70,-0.36,-8.08,0.00,0
323961,38.2612233,140.8485612,5.72,-0.38,-8.06,0.00,0
324084,38.2612233,140.8485612,5.67,-0.34,-8.08,0.00,0
324221,38.2612233,140.8485612,5.72,-0.38,-8.06,0.00,0
324372,38.2612233,140.8485612,5.78,-0.34,-8.02,0.00,0
324523,38.2612233,140.8485612,5.74,-0.36,-8.06,0.00,0
324674,38.2612233,140.8485612,5.76,-0.36,-8.04,0.00,0
324855,38.2612233,140.8485612,5.74,-0.36,-8.08,0.00,0
324978,38.2612233,140.8485612,5.72,-0.36,-8.06,0.00,0
325101,38.2612233,140.8485612,5.76,-0.36,-8.06,0.00,0
325239,38.2612233,140.8485612,5.76,-0.38,-8.06,0.00,0
325390,38.2612233,140.8485612,5.76,-0.40,-8.04,0.00,0
325541,38.2612233,140.8485612,5.76,-0.36,-8.06,0.00,0
325692,38.2612233,140.8485612,5.82,-0.36,-8.04,0.00,0
325873,38.2612233,140.8485612,5.40,-0.40,-8.29,0.00,0
325995,38.2612233,140.8485612,5.34,-0.40,-8.35,0.00,0
326118,38.2612233,140.8485612,5.23,-0.36,-8.41,0.00,0
326257,38.2612233,140.8485612,5.05,-0.40,-8.52,0.00,0
326408,38.2612233,140.8485612,5.01,-0.42,-8.52,0.00,0
326559,38.2612233,140.8485612,5.01,-0.36,-8.54,0.00,0
326710,38.2612233,140.8485612,5.17,-0.45,-8.46,0.00,0
326891,38.2612233,140.8485612,4.82,-0.40,-8.67,0.00,0
327014,38.2612233,140.8485612,5.49,-0.42,-8.29,0.00,0
327137,38.2612233,140.8485612,5.86,-0.40,-7.98,0.00,0
327275,38.2612233,140.8485612,5.97,-0.32,-7.85,0.00,0
327426,38.2612233,140.8485612,5.90,-0.40,-7.95,0.00,0
